participant,session,date,expName,psychopyVersion,OS,frameRate,exp1_trial_key.keys,exp1_trial_loop.thisRepN,exp1_trial_loop.thisTrialN,exp1_trial_loop.thisN,exp1_trial_loop.thisIndex,exp1_trial_loop.ran,num,list,cond,lang,type,sound_dir,phr,sent_code,mat,mat_num,emb_num,emb,cut,mat_f0_c,left,right,correct_img,correct_key,exp1_retrial.thisRepN,exp1_retrial.thisTrialN,exp1_retrial.thisN,exp1_retrial.thisIndex,exp1_retrial.ran,exp1_trial_key.rt,exp1_key.keys,exp1_key.corr,exp1_key.rt,exp1_loop.thisRepN,exp1_loop.thisTrialN,exp1_loop.thisN,exp1_loop.thisIndex,exp1_loop.ran,exp_num,image,image_alt,left_img,right_img,image_dir,exp2_trial_key.keys,exp2_trial_key.rt,exp2_trial_loop.thisRepN,exp2_trial_loop.thisTrialN,exp2_trial_loop.thisN,exp2_trial_loop.thisIndex,exp2_trial_loop.ran,exp2_key.keys,exp2_key.rt,exp2_loop.thisRepN,exp2_loop.thisTrialN,exp2_loop.thisN,exp2_loop.thisIndex,exp2_loop.ran,cs
027,001,2023-10-18_14h15.06.123,exp_g2,2022.2.5,MacIntel,60.0024001,,,,,,,,,,,,,,,,,,,,,,,,,,,,,,,,,,,,,,,,,,,,,,,,,,,,,,,,,,,
027,001,2023-10-18_14h15.06.123,exp_g2,2022.2.5,MacIntel,60.0024001,,0,0,0,0,1,tr1,lt,tr,en,na,practice_trial/audio/tr1.wav,Where are your kids?,lt_tr_en_na_tr1,-,-,-,-,-,-,image/kids.png,image/plates.png,kids,lshift,,,,,,,,,,,,,,,,,,,,,,,,,,,,,,,,,,,
027,001,2023-10-18_14h15.06.123,exp_g2,2022.2.5,MacIntel,60.0024001,,0,1,1,1,1,tr2,lt,tr,en,na,practice_trial/audio/tr2.wav,Who is buying my car?,lt_tr_en_na_tr2,-,-,-,-,-,-,image/bag.png,image/car.png,car,rshift,,,,,,,,,,,,,,,,,,,,,,,,,,,,,,,,,,,
027,001,2023-10-18_14h15.06.123,exp_g2,2022.2.5,MacIntel,60.0024001,,0,2,2,2,1,tr3,lt,tr,sp,na,practice_trial/audio/tr3.wav,¿Dónde está mi perro?,lt_tr_sp_na_tr3,-,-,-,-,-,-,image/dog.png,image/grandma.png,dog,lshift,,,,,,,,,,,,,,,,,,,,,,,,,,,,,,,,,,,
027,001,2023-10-18_14h15.06.123,exp_g2,2022.2.5,MacIntel,60.0024001,,0,3,3,3,1,tr4,lt,tr,sp,na,practice_trial/audio/tr4.wav,¿De quién es la bolsa?,lt_tr_sp_na_tr4,-,-,-,-,-,-,image/shirt.png,image/bag.png,bag,rshift,,,,,,,,,,,,,,,,,,,,,,,,,,,,,,,,,,,
027,001,2023-10-18_14h15.06.123,exp_g2,2022.2.5,MacIntel,60.0024001,,0,4,4,4,1,tr5,lt,tr,se,na,practice_trial/audio/tr5.wav,¿Dónde encontraste sus donuts?,lt_tr_se_na_tr5,-,-,-,-,-,-,image/donut.png,image/cups.png,donut,lshift,,,,,,,,,,,,,,,,,,,,,,,,,,,,,,,,,,,
027,001,2023-10-18_14h15.06.123,exp_g2,2022.2.5,MacIntel,60.0024001,,0,5,5,5,1,tr6,lt,tr,se,na,practice_trial/audio/tr6.wav,¿Cuándo compraste tu sweater?,lt_tr_se_na_tr6,-,-,-,-,-,-,image/chair.png,image/sweater.png,sweater,rshift,,,,,,,,,,,,,,,,,,,,,,,,,,,,,,,,,,,
027,001,2023-10-18_14h15.06.123,exp_g2,2022.2.5,MacIntel,60.0024001,,0,6,6,6,1,tr7,lt,tr,es,na,practice_trial/audio/tr7.wav,Why do you have my camisa?,lt_tr_es_na_tr7,-,-,-,-,-,-,image/shirt.png,image/wallet.png,shirt,lshift,,,,,,,,,,,,,,,,,,,,,,,,,,,,,,,,,,,
027,001,2023-10-18_14h15.06.123,exp_g2,2022.2.5,MacIntel,60.0024001,,0,7,7,7,1,tr8,lt,tr,es,na,practice_trial/audio/tr8.wav,Where did you find his chanclas?,lt_tr_es_na_tr8,-,-,-,-,-,-,image/key.png,image/flipflops.png,flipflops,rshift,,,,,,,,,,,,,,,,,,,,,,,,,,,,,,,,,,,
027,001,2023-10-18_14h15.06.123,exp_g2,2022.2.5,MacIntel,60.0024001,,,,,,,,,,,,,,,,,,,,,,,,,0,0,0,0,1,,,,,,,,,,,,,,,,,,,,,,,,,,,,,,
027,001,2023-10-18_14h15.06.123,exp_g2,2022.2.5,MacIntel,60.0024001,"[""lshift""]",0,0,0,0,1,tr1,lt,tr,en,na,practice_trial/audio/tr1.wav,Where are your kids?,lt_tr_en_na_tr1,-,-,-,-,-,-,image/kids.png,image/plates.png,kids,lshift,,,,,,[2.325600000008933],,,,,,,,,,,,,,,,,,,,,,,,,,,,,
027,001,2023-10-18_14h15.06.123,exp_g2,2022.2.5,MacIntel,60.0024001,"[""rshift""]",0,1,1,1,1,tr2,lt,tr,en,na,practice_trial/audio/tr2.wav,Who is buying my car?,lt_tr_en_na_tr2,-,-,-,-,-,-,image/bag.png,image/car.png,car,rshift,,,,,,[2.6485000000000127],,,,,,,,,,,,,,,,,,,,,,,,,,,,,
027,001,2023-10-18_14h15.06.123,exp_g2,2022.2.5,MacIntel,60.0024001,"[""lshift""]",0,2,2,2,1,tr3,lt,tr,sp,na,practice_trial/audio/tr3.wav,¿Dónde está mi perro?,lt_tr_sp_na_tr3,-,-,-,-,-,-,image/dog.png,image/grandma.png,dog,lshift,,,,,,[2.143999999999977],,,,,,,,,,,,,,,,,,,,,,,,,,,,,
027,001,2023-10-18_14h15.06.123,exp_g2,2022.2.5,MacIntel,60.0024001,"[""rshift""]",0,3,3,3,1,tr4,lt,tr,sp,na,practice_trial/audio/tr4.wav,¿De quién es la bolsa?,lt_tr_sp_na_tr4,-,-,-,-,-,-,image/shirt.png,image/bag.png,bag,rshift,,,,,,[2.6527999999970007],,,,,,,,,,,,,,,,,,,,,,,,,,,,,
027,001,2023-10-18_14h15.06.123,exp_g2,2022.2.5,MacIntel,60.0024001,"[""lshift""]",0,4,4,4,1,tr5,lt,tr,se,na,practice_trial/audio/tr5.wav,¿Dónde encontraste sus donuts?,lt_tr_se_na_tr5,-,-,-,-,-,-,image/donut.png,image/cups.png,donut,lshift,,,,,,[2.8504000000059477],,,,,,,,,,,,,,,,,,,,,,,,,,,,,
027,001,2023-10-18_14h15.06.123,exp_g2,2022.2.5,MacIntel,60.0024001,"[""rshift""]",0,5,5,5,1,tr6,lt,tr,se,na,practice_trial/audio/tr6.wav,¿Cuándo compraste tu sweater?,lt_tr_se_na_tr6,-,-,-,-,-,-,image/chair.png,image/sweater.png,sweater,rshift,,,,,,[2.418299999997032],,,,,,,,,,,,,,,,,,,,,,,,,,,,,
027,001,2023-10-18_14h15.06.123,exp_g2,2022.2.5,MacIntel,60.0024001,"[""lshift""]",0,6,6,6,1,tr7,lt,tr,es,na,practice_trial/audio/tr7.wav,Why do you have my camisa?,lt_tr_es_na_tr7,-,-,-,-,-,-,image/shirt.png,image/wallet.png,shirt,lshift,,,,,,[2.470499999999987],,,,,,,,,,,,,,,,,,,,,,,,,,,,,
027,001,2023-10-18_14h15.06.123,exp_g2,2022.2.5,MacIntel,60.0024001,"[""rshift""]",0,7,7,7,1,tr8,lt,tr,es,na,practice_trial/audio/tr8.wav,Where did you find his chanclas?,lt_tr_es_na_tr8,-,-,-,-,-,-,image/key.png,image/flipflops.png,flipflops,rshift,,,,,,[2.0829000000059636],,,,,,,,,,,,,,,,,,,,,,,,,,,,,
027,001,2023-10-18_14h15.06.123,exp_g2,2022.2.5,MacIntel,60.0024001,,,,,,,,,,,,,,,,,,,,,,,,,1,0,1,0,1,,,,,,,,,,,,,,,,,,,,,,,,,,,,,,
027,001,2023-10-18_14h15.06.123,exp_g2,2022.2.5,MacIntel,60.0024001,"[""lshift""]",0,0,0,0,1,tr1,lt,tr,en,na,practice_trial/audio/tr1.wav,Where are your kids?,lt_tr_en_na_tr1,-,-,-,-,-,-,image/kids.png,image/plates.png,kids,lshift,,,,,,[2.433099999994056],,,,,,,,,,,,,,,,,,,,,,,,,,,,,
027,001,2023-10-18_14h15.06.123,exp_g2,2022.2.5,MacIntel,60.0024001,"[""rshift""]",0,1,1,1,1,tr2,lt,tr,en,na,practice_trial/audio/tr2.wav,Who is buying my car?,lt_tr_en_na_tr2,-,-,-,-,-,-,image/bag.png,image/car.png,car,rshift,,,,,,[1.8831000000089375],,,,,,,,,,,,,,,,,,,,,,,,,,,,,
027,001,2023-10-18_14h15.06.123,exp_g2,2022.2.5,MacIntel,60.0024001,"[""lshift""]",0,2,2,2,1,tr3,lt,tr,sp,na,practice_trial/audio/tr3.wav,¿Dónde está mi perro?,lt_tr_sp_na_tr3,-,-,-,-,-,-,image/dog.png,image/grandma.png,dog,lshift,,,,,,[0.7166999999880943],,,,,,,,,,,,,,,,,,,,,,,,,,,,,
027,001,2023-10-18_14h15.06.123,exp_g2,2022.2.5,MacIntel,60.0024001,"[""rshift""]",0,3,3,3,1,tr4,lt,tr,sp,na,practice_trial/audio/tr4.wav,¿De quién es la bolsa?,lt_tr_sp_na_tr4,-,-,-,-,-,-,image/shirt.png,image/bag.png,bag,rshift,,,,,,[1.0834000000059802],,,,,,,,,,,,,,,,,,,,,,,,,,,,,
027,001,2023-10-18_14h15.06.123,exp_g2,2022.2.5,MacIntel,60.0024001,"[""lshift""]",0,4,4,4,1,tr5,lt,tr,se,na,practice_trial/audio/tr5.wav,¿Dónde encontraste sus donuts?,lt_tr_se_na_tr5,-,-,-,-,-,-,image/donut.png,image/cups.png,donut,lshift,,,,,,[0.49059999999403203],,,,,,,,,,,,,,,,,,,,,,,,,,,,,
027,001,2023-10-18_14h15.06.123,exp_g2,2022.2.5,MacIntel,60.0024001,"[""rshift""]",0,5,5,5,1,tr6,lt,tr,se,na,practice_trial/audio/tr6.wav,¿Cuándo compraste tu sweater?,lt_tr_se_na_tr6,-,-,-,-,-,-,image/chair.png,image/sweater.png,sweater,rshift,,,,,,[0.830399999991073],,,,,,,,,,,,,,,,,,,,,,,,,,,,,
027,001,2023-10-18_14h15.06.123,exp_g2,2022.2.5,MacIntel,60.0024001,"[""lshift""]",0,6,6,6,1,tr7,lt,tr,es,na,practice_trial/audio/tr7.wav,Why do you have my camisa?,lt_tr_es_na_tr7,-,-,-,-,-,-,image/shirt.png,image/wallet.png,shirt,lshift,,,,,,[0.7490999999940584],,,,,,,,,,,,,,,,,,,,,,,,,,,,,
027,001,2023-10-18_14h15.06.123,exp_g2,2022.2.5,MacIntel,60.0024001,"[""rshift""]",0,7,7,7,1,tr8,lt,tr,es,na,practice_trial/audio/tr8.wav,Where did you find his chanclas?,lt_tr_es_na_tr8,-,-,-,-,-,-,image/key.png,image/flipflops.png,flipflops,rshift,,,,,,[0.6614999999999895],,,,,,,,,,,,,,,,,,,,,,,,,,,,,
027,001,2023-10-18_14h15.06.123,exp_g2,2022.2.5,MacIntel,60.0024001,,,,,,,,,,,,,,,,,,,,,,,,,,,,,,,,,,,,,,,,,,,,,,,,,,,,,,,,,,,
027,001,2023-10-18_14h15.06.123,exp_g2,2022.2.5,MacIntel,60.0024001,,,,,,,021,l2,t,es,na,audio/021.wav,,l2_t_es_na_021,,,,,,,image/jacket.png,image/flipflops.png,jacket,lshift,,,,,,,lshift,1,2.5443,0,0,0,35,1,1,jacket,flipflops,jacket,flipflops,,,,,,,,,,,,,,,,
027,001,2023-10-18_14h15.06.123,exp_g2,2022.2.5,MacIntel,60.0024001,,,,,,,159,l1,t,es,f0c,audio/159.wav,,l1_t_es_f0c_159,,,,,,,image/restaurant.png,image/hotel.png,restaurant,lshift,,,,,,,lshift,1,2.6661,0,1,1,53,1,1,restaurant,hotel,restaurant,hotel,,,,,,,,,,,,,,,,
027,001,2023-10-18_14h15.06.123,exp_g2,2022.2.5,MacIntel,60.0024001,,,,,,,102,l2,f,en,na,audio/102.wav,,l2_f_en_na_102,,,,,,,image/socks.png,image/book.png,books,rshift,,,,,,,rshift,1,2.1842,0,2,2,6,1,1,books,socks,socks,book,,,,,,,,,,,,,,,,
027,001,2023-10-18_14h15.06.123,exp_g2,2022.2.5,MacIntel,60.0024001,,,,,,,029,l2,t,es,na,audio/029.wav,,l2_t_es_na_029,,,,,,,image/armchair.png,image/ring.png,armchair,lshift,,,,,,,,0,,0,3,3,43,1,1,armchair,ring,armchair,ring,,,,,,,,,,,,,,,,
027,001,2023-10-18_14h15.06.123,exp_g2,2022.2.5,MacIntel,60.0024001,,,,,,,109,l2,f,en,na,audio/109.wav,,l2_f_en_na_109,,,,,,,image/fish.png,image/woman.png,fish,lshift,,,,,,,lshift,1,1.8477,0,4,4,13,1,1,fish,woman,fish,woman,,,,,,,,,,,,,,,,
027,001,2023-10-18_14h15.06.123,exp_g2,2022.2.5,MacIntel,60.0024001,,,,,,,123,l2,f,sp,na,audio/123.wav,,l2_f_sp_na_123,,,,,,,image/sweater.png,image/cellphone.png,sweater,lshift,,,,,,,lshift,1,1.9904,0,5,5,27,1,1,sweater,cellphone,sweater,cellphone,,,,,,,,,,,,,,,,
027,001,2023-10-18_14h15.06.123,exp_g2,2022.2.5,MacIntel,60.0024001,,,,,,,157,l1,t,es,f0c,audio/157.wav,,l1_t_es_f0c_157,,,,,,,image/jacket.png,image/shirt.png,jacket,lshift,,,,,,,lshift,1,2.1959,0,6,6,51,1,1,jacket,shirt,jacket,shirt,,,,,,,,,,,,,,,,
027,001,2023-10-18_14h15.06.123,exp_g2,2022.2.5,MacIntel,60.0024001,,,,,,,022,l2,t,es,na,audio/022.wav,,l2_t_es_na_022,,,,,,,image/dog.png,image/cat.png,cat,rshift,,,,,,,rshift,1,2.2112,0,7,7,36,1,1,cat,dog,dog,cat,,,,,,,,,,,,,,,,
027,001,2023-10-18_14h15.06.123,exp_g2,2022.2.5,MacIntel,60.0024001,,,,,,,027,l2,t,es,na,audio/027.wav,,l2_t_es_na_027,,,,,,,image/shirt.png,image/book.png,shirt,lshift,,,,,,,lshift,1,2.0457,0,8,8,41,1,1,shirt,book,shirt,book,,,,,,,,,,,,,,,,
027,001,2023-10-18_14h15.06.123,exp_g2,2022.2.5,MacIntel,60.0024001,,,,,,,104,l2,f,en,na,audio/104.wav,,l2_f_en_na_104,,,,,,,image/shirt.png,image/bag.png,bag,rshift,,,,,,,rshift,1,1.7226,0,9,9,8,1,1,bag,shirt,shirt,bag,,,,,,,,,,,,,,,,
027,001,2023-10-18_14h15.06.123,exp_g2,2022.2.5,MacIntel,60.0024001,,,,,,,026,l2,t,es,na,audio/026.wav,,l2_t_es_na_026,,,,,,,image/village.png,image/grandma.png,grandma,rshift,,,,,,,rshift,1,2.2962,0,10,10,40,1,1,grandma,village,village,grandma,,,,,,,,,,,,,,,,
027,001,2023-10-18_14h15.06.123,exp_g2,2022.2.5,MacIntel,60.0024001,,,,,,,126,l2,f,sp,na,audio/126.wav,,l2_f_sp_na_126,,,,,,,image/backpack.png,image/key.png,key,rshift,,,,,,,lshift,0,3.5193,0,11,11,30,1,1,key,backpack,backpack,key,,,,,,,,,,,,,,,,
027,001,2023-10-18_14h15.06.123,exp_g2,2022.2.5,MacIntel,60.0024001,,,,,,,127,l2,f,sp,na,audio/127.wav,,l2_f_sp_na_127,,,,,,,image/cat.png,image/dog.png,cat,lshift,,,,,,,lshift,1,3.7362,0,12,12,31,1,1,cat,dog,cat,dog,,,,,,,,,,,,,,,,
027,001,2023-10-18_14h15.06.123,exp_g2,2022.2.5,MacIntel,60.0024001,,,,,,,151,l1,t,es,f0c,audio/151.wav,,l1_t_es_f0c_151,,,,,,,image/cat.png,image/flower.png,cat,lshift,,,,,,,lshift,1,2.9195,0,13,13,45,1,1,cat,flower,cat,flower,,,,,,,,,,,,,,,,
027,001,2023-10-18_14h15.06.123,exp_g2,2022.2.5,MacIntel,60.0024001,,,,,,,130,l2,f,sp,na,audio/130.wav,,l2_f_sp_na_130,,,,,,,image/socks.png,image/glasses.png,glasses,rshift,,,,,,,rshift,1,2.4516,0,14,14,34,1,1,glasses,socks,socks,glasses,,,,,,,,,,,,,,,,
027,001,2023-10-18_14h15.06.123,exp_g2,2022.2.5,MacIntel,60.0024001,,,,,,,119,l2,f,se,na,audio/119.wav,,l2_f_se_na_119,,,,,,,image/penthouse.png,image/rocket.png,penthouse,lshift,,,,,,,lshift,1,2.4416,0,15,15,23,1,1,penthouse,rocket,penthouse,rocket,,,,,,,,,,,,,,,,
027,001,2023-10-18_14h15.06.123,exp_g2,2022.2.5,MacIntel,60.0024001,,,,,,,107,l2,f,en,na,audio/107.wav,,l2_f_en_na_107,,,,,,,image/man.png,image/cat.png,man,lshift,,,,,,,lshift,1,2.2616,0,16,16,11,1,1,man,cat,man,cat,,,,,,,,,,,,,,,,
027,001,2023-10-18_14h15.06.123,exp_g2,2022.2.5,MacIntel,60.0024001,,,,,,,025,l2,t,es,na,audio/025.wav,,l2_t_es_na_025,,,,,,,image/cellphone.png,image/truck.png,cellphone,lshift,,,,,,,rshift,0,2.6853,0,17,17,39,1,1,cellphone,truck,cellphone,truck,,,,,,,,,,,,,,,,
027,001,2023-10-18_14h15.06.123,exp_g2,2022.2.5,MacIntel,60.0024001,,,,,,,108,l2,f,en,na,audio/108.wav,,l2_f_en_na_108,,,,,,,image/scarf.png,image/socks.png,socks,rshift,,,,,,,rshift,1,2.1914,0,18,18,12,1,1,socks,scarf,scarf,socks,,,,,,,,,,,,,,,,
027,001,2023-10-18_14h15.06.123,exp_g2,2022.2.5,MacIntel,60.0024001,,,,,,,129,l2,f,sp,na,audio/129.wav,,l2_f_sp_na_129,,,,,,,image/bag.png,image/chair.png,bag,lshift,,,,,,,rshift,0,4.9002,0,19,19,33,1,1,bag,chair,bag,chair,,,,,,,,,,,,,,,,
027,001,2023-10-18_14h15.06.123,exp_g2,2022.2.5,MacIntel,60.0024001,,,,,,,120,l2,f,se,na,audio/120.wav,,l2_f_se_na_120,,,,,,,image/glasses.png,image/joycons.png,joycons,rshift,,,,,,,rshift,1,3.6203,0,20,20,24,1,1,joycons,glasses,glasses,joycons,,,,,,,,,,,,,,,,
027,001,2023-10-18_14h15.06.123,exp_g2,2022.2.5,MacIntel,60.0024001,,,,,,,111,l2,f,se,na,audio/111.wav,,l2_f_se_na_111,,,,,,,image/mashedpotatoes.png,image/donut.png,mashedpotatoes,lshift,,,,,,,lshift,1,2.3454,0,21,21,15,1,1,mashedpotatoes,donut,mashedpotatoes,donut,,,,,,,,,,,,,,,,
027,001,2023-10-18_14h15.06.123,exp_g2,2022.2.5,MacIntel,60.0024001,,,,,,,098,l2,f,en,na,audio/098.wav,,l2_f_en_na_098,,,,,,,image/man.png,image/woman.png,woman,rshift,,,,,,,rshift,1,1.7692,0,22,22,2,1,1,woman,man,man,woman,,,,,,,,,,,,,,,,
027,001,2023-10-18_14h15.06.123,exp_g2,2022.2.5,MacIntel,60.0024001,,,,,,,154,l1,t,es,f0c,audio/154.wav,,l1_t_es_f0c_154,,,,,,,image/basket.png,image/truck.png,truck,rshift,,,,,,,lshift,0,3.6532,0,23,23,48,1,1,truck,basket,basket,truck,,,,,,,,,,,,,,,,
027,001,2023-10-18_14h15.06.123,exp_g2,2022.2.5,MacIntel,60.0024001,,,,,,,023,l2,t,es,na,audio/023.wav,,l2_t_es_na_023,,,,,,,image/wine.png,image/cellphone.png,wine,lshift,,,,,,,lshift,1,2.0187,0,24,24,37,1,1,wine,cellphone,wine,cellphone,,,,,,,,,,,,,,,,
027,001,2023-10-18_14h15.06.123,exp_g2,2022.2.5,MacIntel,60.0024001,,,,,,,096,l2,f,en,na,audio/096.wav,,l2_f_en_na_096,,,,,,,image/woman.png,image/cat.png,cat,rshift,,,,,,,rshift,1,2.1834,0,25,25,0,1,1,cat,woman,woman,cat,../image/,,,,,,,,,,,,,,,
027,001,2023-10-18_14h15.06.123,exp_g2,2022.2.5,MacIntel,60.0024001,,,,,,,125,l2,f,sp,na,audio/125.wav,,l2_f_sp_na_125,,,,,,,image/desk.png,image/bottle.png,desk,lshift,,,,,,,rshift,0,3.7855,0,26,26,29,1,1,desk,bottle,desk,bottle,,,,,,,,,,,,,,,,
027,001,2023-10-18_14h15.06.123,exp_g2,2022.2.5,MacIntel,60.0024001,,,,,,,030,l2,t,es,na,audio/030.wav,,l2_t_es_na_030,,,,,,,image/flipflops.png,image/boy.png,boy,rshift,,,,,,,rshift,1,3.0019,0,27,27,44,1,1,boy,flipflops,flipflops,boy,,,,,,,,,,,,,,,,
027,001,2023-10-18_14h15.06.123,exp_g2,2022.2.5,MacIntel,60.0024001,,,,,,,106,l2,f,en,na,audio/106.wav,,l2_f_en_na_106,,,,,,,image/wallet.png,image/computer.png,computer,rshift,,,,,,,rshift,1,2.6429,0,28,28,10,1,1,computer,wallet,wallet,computer,,,,,,,,,,,,,,,,
027,001,2023-10-18_14h15.06.123,exp_g2,2022.2.5,MacIntel,60.0024001,,,,,,,113,l2,f,se,na,audio/113.wav,,l2_f_se_na_113,,,,,,,image/loafers.png,image/sneakers.png,loafers,lshift,,,,,,,lshift,1,2.4029,0,29,29,17,1,1,loafers,sneakers,loafers,sneakers,,,,,,,,,,,,,,,,
027,001,2023-10-18_14h15.06.123,exp_g2,2022.2.5,MacIntel,60.0024001,,,,,,,156,l1,t,es,f0c,audio/156.wav,,l1_t_es_f0c_156,,,,,,,image/city.png,image/village.png,village,rshift,,,,,,,rshift,1,4.4179,0,30,30,50,1,1,village,city,city,village,,,,,,,,,,,,,,,,
027,001,2023-10-18_14h15.06.123,exp_g2,2022.2.5,MacIntel,60.0024001,,,,,,,152,l1,t,es,f0c,audio/152.wav,,l1_t_es_f0c_152,,,,,,,image/car.png,image/grandma.png,grandma,rshift,,,,,,,rshift,1,2.5346,0,31,31,46,1,1,grandma,car,car,grandma,,,,,,,,,,,,,,,,
027,001,2023-10-18_14h15.06.123,exp_g2,2022.2.5,MacIntel,60.0024001,,,,,,,099,l2,f,en,na,audio/099.wav,,l2_f_en_na_099,,,,,,,image/dog.png,image/cat.png,dog,lshift,,,,,,,lshift,1,1.6428,0,32,32,3,1,1,dog,cat,dog,cat,,,,,,,,,,,,,,,,
027,001,2023-10-18_14h15.06.123,exp_g2,2022.2.5,MacIntel,60.0024001,,,,,,,115,l2,f,se,na,audio/115.wav,,l2_f_se_na_115,,,,,,,image/notebook.png,image/cellphone.png,notebook,lshift,,,,,,,lshift,1,2.8187,0,33,33,19,1,1,notebook,cellphone,notebook,cellphone,,,,,,,,,,,,,,,,
027,001,2023-10-18_14h15.06.123,exp_g2,2022.2.5,MacIntel,60.0024001,,,,,,,124,l2,f,sp,na,audio/124.wav,,l2_f_sp_na_124,,,,,,,image/bag.png,image/bed.png,bed,rshift,,,,,,,rshift,1,2.4603,0,34,34,28,1,1,bed,bag,bag,bed,,,,,,,,,,,,,,,,
027,001,2023-10-18_14h15.06.123,exp_g2,2022.2.5,MacIntel,60.0024001,,,,,,,117,l2,f,se,na,audio/117.wav,,l2_f_se_na_117,,,,,,,image/spongebob.png,image/mickeymouse.png,spongebob,lshift,,,,,,,lshift,1,2.1522,0,35,35,21,1,1,spongebob,mickeymouse,spongebob,mickeymouse,,,,,,,,,,,,,,,,
027,001,2023-10-18_14h15.06.123,exp_g2,2022.2.5,MacIntel,60.0024001,,,,,,,128,l2,f,sp,na,audio/128.wav,,l2_f_sp_na_128,,,,,,,image/cups.png,image/kids.png,kids,rshift,,,,,,,rshift,1,4.3505,0,36,36,32,1,1,kids,cups,cups,kids,,,,,,,,,,,,,,,,
027,001,2023-10-18_14h15.06.123,exp_g2,2022.2.5,MacIntel,60.0024001,,,,,,,105,l2,f,en,na,audio/105.wav,,l2_f_en_na_105,,,,,,,image/bed.png,image/plane.png,bed,lshift,,,,,,,lshift,1,2.3531,0,37,37,9,1,1,bed,plane,bed,plane,,,,,,,,,,,,,,,,
027,001,2023-10-18_14h15.06.123,exp_g2,2022.2.5,MacIntel,60.0024001,,,,,,,153,l1,t,es,f0c,audio/153.wav,,l1_t_es_f0c_153,,,,,,,image/cellphone.png,image/book.png,cellphone,lshift,,,,,,,lshift,1,4.3531,0,38,38,47,1,1,cellphone,book,cellphone,book,,,,,,,,,,,,,,,,
027,001,2023-10-18_14h15.06.123,exp_g2,2022.2.5,MacIntel,60.0024001,,,,,,,101,l2,f,en,na,audio/101.wav,,l2_f_en_na_101,,,,,,,image/computer.png,image/bag.png,computer,lshift,,,,,,,lshift,1,2.3441,0,39,39,5,1,1,computer,bag,computer,bag,,,,,,,,,,,,,,,,
027,001,2023-10-18_14h15.06.123,exp_g2,2022.2.5,MacIntel,60.0024001,,,,,,,155,l1,t,es,f0c,audio/155.wav,,l1_t_es_f0c_155,,,,,,,image/flipflops.png,image/flower.png,flipflops,lshift,,,,,,,lshift,1,2.3927,0,40,40,49,1,1,flipflops,flower,flipflops,flower,,,,,,,,,,,,,,,,
027,001,2023-10-18_14h15.06.123,exp_g2,2022.2.5,MacIntel,60.0024001,,,,,,,158,l1,t,es,f0c,audio/158.wav,,l1_t_es_f0c_158,,,,,,,image/pants.png,image/shirt.png,shirt,rshift,,,,,,,rshift,1,2.3774,0,41,41,52,1,1,shirt,pants,pants,shirt,,,,,,,,,,,,,,,,
027,001,2023-10-18_14h15.06.123,exp_g2,2022.2.5,MacIntel,60.0024001,,,,,,,116,l2,f,se,na,audio/116.wav,,l2_f_se_na_116,,,,,,,image/sweatpants.png,image/boxers.png,boxers,rshift,,,,,,,rshift,1,2.3683,0,42,42,20,1,1,boxers,sweatpants,sweatpants,boxers,,,,,,,,,,,,,,,,
027,001,2023-10-18_14h15.06.123,exp_g2,2022.2.5,MacIntel,60.0024001,,,,,,,114,l2,f,se,na,audio/114.wav,,l2_f_se_na_114,,,,,,,image/jeans.png,image/sweatpants.png,sweatpants,rshift,,,,,,,lshift,0,2.4189,0,43,43,18,1,1,sweatpants,jeans,jeans,sweatpants,,,,,,,,,,,,,,,,
027,001,2023-10-18_14h15.06.123,exp_g2,2022.2.5,MacIntel,60.0024001,,,,,,,097,l2,f,en,na,audio/097.wav,,l2_f_en_na_097,,,,,,,image/ring.png,image/belt.png,ring,lshift,,,,,,,lshift,1,1.869,0,44,44,1,1,1,ring,belt,ring,belt,,,,,,,,,,,,,,,,
027,001,2023-10-18_14h15.06.123,exp_g2,2022.2.5,MacIntel,60.0024001,,,,,,,100,l2,f,en,na,audio/100.wav,,l2_f_en_na_100,,,,,,,image/wallet.png,image/scarf.png,scarf,rshift,,,,,,,rshift,1,1.7054,0,45,45,4,1,1,scarf,wallet,wallet,scarf,,,,,,,,,,,,,,,,
027,001,2023-10-18_14h15.06.123,exp_g2,2022.2.5,MacIntel,60.0024001,,,,,,,103,l2,f,en,na,audio/103.wav,,l2_f_en_na_103,,,,,,,image/toys.png,image/sneakers.png,toys,lshift,,,,,,,lshift,1,1.9997,0,46,46,7,1,1,toys,sneakers,toys,sneakers,,,,,,,,,,,,,,,,
027,001,2023-10-18_14h15.06.123,exp_g2,2022.2.5,MacIntel,60.0024001,,,,,,,121,l2,f,sp,na,audio/121.wav,,l2_f_sp_na_121,,,,,,,image/shoe.png,image/glasses.png,shoe,lshift,,,,,,,lshift,1,2.4521,0,47,47,25,1,1,shoe,glasses,shoe,glasses,,,,,,,,,,,,,,,,
027,001,2023-10-18_14h15.06.123,exp_g2,2022.2.5,MacIntel,60.0024001,,,,,,,112,l2,f,se,na,audio/112.wav,,l2_f_se_na_112,,,,,,,image/burger.png,image/hotdog.png,hotdog,rshift,,,,,,,rshift,1,2.1598,0,48,48,16,1,1,hotdog,burger,burger,hotdog,,,,,,,,,,,,,,,,
027,001,2023-10-18_14h15.06.123,exp_g2,2022.2.5,MacIntel,60.0024001,,,,,,,024,l2,t,es,na,audio/024.wav,,l2_t_es_na_024,,,,,,,image/bed.png,image/jug.png,jug,rshift,,,,,,,rshift,1,4.5985,0,49,49,38,1,1,jug,bed,bed,jug,,,,,,,,,,,,,,,,
027,001,2023-10-18_14h15.06.123,exp_g2,2022.2.5,MacIntel,60.0024001,,,,,,,110,l2,f,en,na,audio/110.wav,,l2_f_en_na_110,,,,,,,image/dog.png,image/cat.png,cat,rshift,,,,,,,lshift,0,2.5838,0,50,50,14,1,1,cat,dog,dog,cat,,,,,,,,,,,,,,,,
027,001,2023-10-18_14h15.06.123,exp_g2,2022.2.5,MacIntel,60.0024001,,,,,,,118,l2,f,se,na,audio/118.wav,,l2_f_se_na_118,,,,,,,image/icecream.png,image/donut.png,donut,rshift,,,,,,,rshift,1,4.5605,0,51,51,22,1,1,donut,icecream,icecream,donut,,,,,,,,,,,,,,,,
027,001,2023-10-18_14h15.06.123,exp_g2,2022.2.5,MacIntel,60.0024001,,,,,,,122,l2,f,sp,na,audio/122.wav,,l2_f_sp_na_122,,,,,,,image/desk.png,image/chair.png,chair,rshift,,,,,,,rshift,1,2.6859,0,52,52,26,1,1,chair,desk,desk,chair,,,,,,,,,,,,,,,,
027,001,2023-10-18_14h15.06.123,exp_g2,2022.2.5,MacIntel,60.0024001,,,,,,,028,l2,t,es,na,audio/028.wav,,l2_t_es_na_028,,,,,,,image/pants.png,image/glasses.png,glasses,rshift,,,,,,,lshift,0,2.9292,0,53,53,42,1,1,glasses,pants,pants,glasses,,,,,,,,,,,,,,,,
027,001,2023-10-18_14h15.06.123,exp_g2,2022.2.5,MacIntel,60.0024001,,,,,,,160,l1,t,es,f0c,audio/160.wav,,l1_t_es_f0c_160,,,,,,,image/ring.png,image/bracelet.png,bracelet,rshift,,,,,,,rshift,1,4.0264,0,54,54,54,1,1,bracelet,ring,ring,bracelet,,,,,,,,,,,,,,,,
027,001,2023-10-18_14h15.06.123,exp_g2,2022.2.5,MacIntel,60.0024001,,,,,,,,,,,,,,,,,,,,,,,,,,,,,,,,,,,,,,,,,,,,,,,,,,,,,,,,,,,
027,001,2023-10-18_14h15.06.123,exp_g2,2022.2.5,MacIntel,60.0024001,,,,,,,tr1,lt,tr,en,na,practice_trial/audio/tr1.wav,Where are your kids?,lt_tr_en_na_tr1,-,-,-,-,-,-,image/america.png,image/spain.png,,,,,,,,,,,,,,,,,,,,,,,"[""lshift""]",[2.445399999991025],0,0,0,0,1,,,,,,,,
027,001,2023-10-18_14h15.06.123,exp_g2,2022.2.5,MacIntel,60.0024001,,,,,,,tr2,lt,tr,en,na,practice_trial/audio/tr2.wav,Who is buying my car?,lt_tr_en_na_tr2,-,-,-,-,-,-,image/america.png,image/spain.png,,,,,,,,,,,,,,,,,,,,,,,"[""lshift"",""lshift""]","[2.3105999999940536,3.718599999994069]",0,1,1,1,1,,,,,,,,
027,001,2023-10-18_14h15.06.123,exp_g2,2022.2.5,MacIntel,60.0024001,,,,,,,tr3,lt,tr,sp,na,practice_trial/audio/tr3.wav,¿Dónde está mi perro?,lt_tr_sp_na_tr3,-,-,-,-,-,-,image/america.png,image/spain.png,,,,,,,,,,,,,,,,,,,,,,,"[""rshift""]",[2.059399999991058],0,2,2,2,1,,,,,,,,
027,001,2023-10-18_14h15.06.123,exp_g2,2022.2.5,MacIntel,60.0024001,,,,,,,tr4,lt,tr,sp,na,practice_trial/audio/tr4.wav,¿De quién es la bolsa?,lt_tr_sp_na_tr4,-,-,-,-,-,-,image/america.png,image/spain.png,,,,,,,,,,,,,,,,,,,,,,,"[""rshift""]",[1.5232999999970502],0,3,3,3,1,,,,,,,,
027,001,2023-10-18_14h15.06.123,exp_g2,2022.2.5,MacIntel,60.0024001,,,,,,,tr5,lt,tr,se,na,practice_trial/audio/tr5.wav,¿Dónde encontraste sus donuts?,lt_tr_se_na_tr5,-,-,-,-,-,-,image/america.png,image/spain.png,,,,,,,,,,,,,,,,,,,,,,,"[""rshift""]",[2.2677999999970666],0,4,4,4,1,,,,,,,,
027,001,2023-10-18_14h15.06.123,exp_g2,2022.2.5,MacIntel,60.0024001,,,,,,,tr6,lt,tr,se,na,practice_trial/audio/tr6.wav,¿Cuándo compraste tu sweater?,lt_tr_se_na_tr6,-,-,-,-,-,-,image/america.png,image/spain.png,,,,,,,,,,,,,,,,,,,,,,,"[""rshift"",""lshift""]","[1.8754999999999882,2.6449000000059755]",0,5,5,5,1,,,,,,,,
027,001,2023-10-18_14h15.06.123,exp_g2,2022.2.5,MacIntel,60.0024001,,,,,,,tr7,lt,tr,es,na,practice_trial/audio/tr7.wav,Why do you have my camisa?,lt_tr_es_na_tr7,-,-,-,-,-,-,image/america.png,image/spain.png,,,,,,,,,,,,,,,,,,,,,,,"[""lshift"",""rshift""]","[1.634099999994021,2.481200000002957]",0,6,6,6,1,,,,,,,,
027,001,2023-10-18_14h15.06.123,exp_g2,2022.2.5,MacIntel,60.0024001,,,,,,,tr8,lt,tr,es,na,practice_trial/audio/tr8.wav,Where did you find his chanclas?,lt_tr_es_na_tr8,-,-,-,-,-,-,image/america.png,image/spain.png,,,,,,,,,,,,,,,,,,,,,,,"[""lshift"",""rshift""]","[1.2172999999970102,1.9837000000029548]",0,7,7,7,1,,,,,,,,
027,001,2023-10-18_14h15.06.123,exp_g2,2022.2.5,MacIntel,60.0024001,,,,,,,,,,,,,,,,,,,,,,,,,,,,,,,,,,,,,,,,,,,,,,,,,,,,,,,,,,,
027,001,2023-10-18_14h15.06.123,exp_g2,2022.2.5,MacIntel,60.0024001,,,,,,,147,l2,t,es,f0u,audio/147.wav,,l2_t_es_f0u_147,,,,,,,image/america.png,image/spain.png,,,,,,,,,,,,,,,,,2,america,spain,,,,,,,,,,,"[""lshift"",""rshift""]","[1.5092999999970402,2.6195999999940227]",0,0,0,51,1,1
027,001,2023-10-18_14h15.06.123,exp_g2,2022.2.5,MacIntel,60.0024001,,,,,,,066,l1,f,en,na,audio/066.wav,,l1_f_en_na_066,,,,,,,image/america.png,image/spain.png,,,,,,,,,,,,,,,,,2,america,spain,,,,,,,,,,,"[""lshift"",""lshift""]","[1.1004000000059477,2.406900000005976]",0,1,1,5,1,
027,001,2023-10-18_14h15.06.123,exp_g2,2022.2.5,MacIntel,60.0024001,,,,,,,072,l1,f,en,na,audio/072.wav,,l1_f_en_na_072,,,,,,,image/america.png,image/spain.png,,,,,,,,,,,,,,,,,2,america,spain,,,,,,,,,,,"[""lshift"",""rshift""]","[1.260899999991068,2.056799999996997]",0,2,2,11,1,
027,001,2023-10-18_14h15.06.123,exp_g2,2022.2.5,MacIntel,60.0024001,,,,,,,089,l1,f,sp,na,audio/089.wav,,l1_f_sp_na_089,,,,,,,image/america.png,image/spain.png,,,,,,,,,,,,,,,,,2,america,spain,,,,,,,,,,,"[""lshift"",""rshift""]","[0.9922000000029811,1.581700000002968]",0,3,3,28,1,
027,001,2023-10-18_14h15.06.123,exp_g2,2022.2.5,MacIntel,60.0024001,,,,,,,083,l1,f,se,na,audio/083.wav,,l1_f_se_na_083,,,,,,,image/america.png,image/spain.png,,,,,,,,,,,,,,,,,2,america,spain,,,,,,,,,,,"[""rshift"",""lshift"",""rshift""]","[1.5749999999999886,2.400700000002985,2.680999999999983]",0,4,4,22,1,1
027,001,2023-10-18_14h15.06.123,exp_g2,2022.2.5,MacIntel,60.0024001,,,,,,,077,l1,f,se,na,audio/077.wav,,l1_f_se_na_077,,,,,,,image/america.png,image/spain.png,,,,,,,,,,,,,,,,,2,america,spain,,,,,,,,,,,"[""rshift"",""lshift""]","[1.3337000000029775,2.0592000000029316]",0,5,5,16,1,1
027,001,2023-10-18_14h15.06.123,exp_g2,2022.2.5,MacIntel,60.0024001,,,,,,,076,l1,f,se,na,audio/076.wav,,l1_f_se_na_076,,,,,,,image/america.png,image/spain.png,,,,,,,,,,,,,,,,,2,america,spain,,,,,,,,,,,"[""rshift"",""lshift""]","[1.0848999999910802,2.0599999999999454]",0,6,6,15,1,1
027,001,2023-10-18_14h15.06.123,exp_g2,2022.2.5,MacIntel,60.0024001,,,,,,,084,l1,f,se,na,audio/084.wav,,l1_f_se_na_084,,,,,,,image/america.png,image/spain.png,,,,,,,,,,,,,,,,,2,america,spain,,,,,,,,,,,"[""rshift""]",[1.1088999999910811],0,7,7,23,1,1
027,001,2023-10-18_14h15.06.123,exp_g2,2022.2.5,MacIntel,60.0024001,,,,,,,148,l2,t,es,f0u,audio/148.wav,,l2_t_es_f0u_148,,,,,,,image/america.png,image/spain.png,,,,,,,,,,,,,,,,,2,america,spain,,,,,,,,,,,"[""lshift"",""rshift""]","[1.5172999999970216,2.117200000002981]",0,8,8,52,1,1
027,001,2023-10-18_14h15.06.123,exp_g2,2022.2.5,MacIntel,60.0024001,,,,,,,017,l1,t,es,na,audio/017.wav,,l1_t_es_na_017,,,,,,,image/america.png,image/spain.png,,,,,,,,,,,,,,,,,2,america,spain,,,,,,,,,,,"[""lshift"",""rshift""]","[1.2327999999970416,2.708100000008926]",0,9,9,41,1,1
027,001,2023-10-18_14h15.06.123,exp_g2,2022.2.5,MacIntel,60.0024001,,,,,,,011,l1,t,es,na,audio/011.wav,,l1_t_es_na_011,,,,,,,image/america.png,image/spain.png,,,,,,,,,,,,,,,,,2,america,spain,,,,,,,,,,,"[""lshift"",""rshift""]","[1.70150000000001,2.8367000000030203]",0,10,10,35,1,1
027,001,2023-10-18_14h15.06.123,exp_g2,2022.2.5,MacIntel,60.0024001,,,,,,,075,l1,f,en,na,audio/075.wav,,l1_f_en_na_075,,,,,,,image/america.png,image/spain.png,,,,,,,,,,,,,,,,,2,america,spain,,,,,,,,,,,"[""lshift""]",[1.461500000000001],0,11,11,14,1,
027,001,2023-10-18_14h15.06.123,exp_g2,2022.2.5,MacIntel,60.0024001,,,,,,,071,l1,f,en,na,audio/071.wav,,l1_f_en_na_071,,,,,,,image/america.png,image/spain.png,,,,,,,,,,,,,,,,,2,america,spain,,,,,,,,,,,"[""lshift""]",[1.4094000000059168],0,12,12,10,1,
027,001,2023-10-18_14h15.06.123,exp_g2,2022.2.5,MacIntel,60.0024001,,,,,,,149,l2,t,es,f0u,audio/149.wav,,l2_t_es_f0u_149,,,,,,,image/america.png,image/spain.png,,,,,,,,,,,,,,,,,2,america,spain,,,,,,,,,,,"[""lshift"",""rshift""]","[1.316799999996988,2.4309999999999263]",0,13,13,53,1,1
027,001,2023-10-18_14h15.06.123,exp_g2,2022.2.5,MacIntel,60.0024001,,,,,,,081,l1,f,se,na,audio/081.wav,,l1_f_se_na_081,,,,,,,image/america.png,image/spain.png,,,,,,,,,,,,,,,,,2,america,spain,,,,,,,,,,,"[""lshift"",""rshift"",""rshift""]","[1.3007999999970252,1.5674999999999955,1.800299999997037]",0,14,14,20,1,1
027,001,2023-10-18_14h15.06.123,exp_g2,2022.2.5,MacIntel,60.0024001,,,,,,,018,l1,t,es,na,audio/018.wav,,l1_t_es_na_018,,,,,,,image/america.png,image/spain.png,,,,,,,,,,,,,,,,,2,america,spain,,,,,,,,,,,"[""lshift"",""rshift""]","[1.367100000008918,2.300600000008899]",0,15,15,42,1,1
027,001,2023-10-18_14h15.06.123,exp_g2,2022.2.5,MacIntel,60.0024001,,,,,,,086,l1,f,sp,na,audio/086.wav,,l1_f_sp_na_086,,,,,,,image/america.png,image/spain.png,,,,,,,,,,,,,,,,,2,america,spain,,,,,,,,,,,"[""rshift""]",[1.4678000000119482],0,16,16,25,1,
027,001,2023-10-18_14h15.06.123,exp_g2,2022.2.5,MacIntel,60.0024001,,,,,,,088,l1,f,sp,na,audio/088.wav,,l1_f_sp_na_088,,,,,,,image/america.png,image/spain.png,,,,,,,,,,,,,,,,,2,america,spain,,,,,,,,,,,"[""rshift""]",[1.550699999988069],0,17,17,27,1,
027,001,2023-10-18_14h15.06.123,exp_g2,2022.2.5,MacIntel,60.0024001,,,,,,,063,l1,f,en,na,audio/063.wav,,l1_f_en_na_063,,,,,,,image/america.png,image/spain.png,,,,,,,,,,,,,,,,,2,america,spain,,,,,,,,,,,"[""lshift""]",[1.2005000000000337],0,18,18,2,1,
027,001,2023-10-18_14h15.06.123,exp_g2,2022.2.5,MacIntel,60.0024001,,,,,,,065,l1,f,en,na,audio/065.wav,,l1_f_en_na_065,,,,,,,image/america.png,image/spain.png,,,,,,,,,,,,,,,,,2,america,spain,,,,,,,,,,,"[""lshift""]",[1.2340000000000373],0,19,19,4,1,
027,001,2023-10-18_14h15.06.123,exp_g2,2022.2.5,MacIntel,60.0024001,,,,,,,144,l2,t,es,f0u,audio/144.wav,,l2_t_es_f0u_144,,,,,,,image/america.png,image/spain.png,,,,,,,,,,,,,,,,,2,america,spain,,,,,,,,,,,"[""lshift"",""rshift""]","[1.1859000000059723,1.9184999999999945]",0,20,20,48,1,1
027,001,2023-10-18_14h15.06.123,exp_g2,2022.2.5,MacIntel,60.0024001,,,,,,,012,l1,t,es,na,audio/012.wav,,l1_t_es_na_012,,,,,,,image/america.png,image/spain.png,,,,,,,,,,,,,,,,,2,america,spain,,,,,,,,,,,"[""lshift"",""rshift""]","[1.7008999999910657,2.3327999999970643]",0,21,21,36,1,1
027,001,2023-10-18_14h15.06.123,exp_g2,2022.2.5,MacIntel,60.0024001,,,,,,,070,l1,f,en,na,audio/070.wav,,l1_f_en_na_070,,,,,,,image/america.png,image/spain.png,,,,,,,,,,,,,,,,,2,america,spain,,,,,,,,,,,"[""lshift""]",[1.610599999994065],0,22,22,9,1,
027,001,2023-10-18_14h15.06.123,exp_g2,2022.2.5,MacIntel,60.0024001,,,,,,,074,l1,f,en,na,audio/074.wav,,l1_f_en_na_074,,,,,,,image/america.png,image/spain.png,,,,,,,,,,,,,,,,,2,america,spain,,,,,,,,,,,"[""lshift""]",[1.5493999999910102],0,23,23,13,1,
027,001,2023-10-18_14h15.06.123,exp_g2,2022.2.5,MacIntel,60.0024001,,,,,,,020,l1,t,es,na,audio/020.wav,,l1_t_es_na_020,,,,,,,image/america.png,image/spain.png,,,,,,,,,,,,,,,,,2,america,spain,,,,,,,,,,,"[""lshift"",""rshift""]","[1.1675000000000182,2.3677999999970325]",0,24,24,44,1,1
027,001,2023-10-18_14h15.06.123,exp_g2,2022.2.5,MacIntel,60.0024001,,,,,,,013,l1,t,es,na,audio/013.wav,,l1_t_es_na_013,,,,,,,image/america.png,image/spain.png,,,,,,,,,,,,,,,,,2,america,spain,,,,,,,,,,,"[""lshift"",""rshift""]","[1.3184000000059086,2.451999999999998]",0,25,25,37,1,1
027,001,2023-10-18_14h15.06.123,exp_g2,2022.2.5,MacIntel,60.0024001,,,,,,,079,l1,f,se,na,audio/079.wav,,l1_f_se_na_079,,,,,,,image/america.png,image/spain.png,,,,,,,,,,,,,,,,,2,america,spain,,,,,,,,,,,"[""lshift"",""rshift"",""rshift""]","[1.1509999999999536,1.467999999999961,1.8173999999910393]",0,26,26,18,1,1
027,001,2023-10-18_14h15.06.123,exp_g2,2022.2.5,MacIntel,60.0024001,,,,,,,064,l1,f,en,na,audio/064.wav,,l1_f_en_na_064,,,,,,,image/america.png,image/spain.png,,,,,,,,,,,,,,,,,2,america,spain,,,,,,,,,,,"[""lshift""]",[1.217599999994036],0,27,27,3,1,
027,001,2023-10-18_14h15.06.123,exp_g2,2022.2.5,MacIntel,60.0024001,,,,,,,090,l1,f,sp,na,audio/090.wav,,l1_f_sp_na_090,,,,,,,image/america.png,image/spain.png,,,,,,,,,,,,,,,,,2,america,spain,,,,,,,,,,,"[""rshift""]",[1.5317999999970198],0,28,28,29,1,
027,001,2023-10-18_14h15.06.123,exp_g2,2022.2.5,MacIntel,60.0024001,,,,,,,094,l1,f,sp,na,audio/094.wav,,l1_f_sp_na_094,,,,,,,image/america.png,image/spain.png,,,,,,,,,,,,,,,,,2,america,spain,,,,,,,,,,,"[""rshift""]",[1.2682000000030484],0,29,29,33,1,
027,001,2023-10-18_14h15.06.123,exp_g2,2022.2.5,MacIntel,60.0024001,,,,,,,061,l1,f,en,na,audio/061.wav,,l1_f_en_na_061,,,,,,,image/america.png,image/spain.png,,,,,,,,,,,,,,,,,2,america,spain,,,,,,,,,,,"[""lshift""]",[1.3672999999970443],0,30,30,0,1,
027,001,2023-10-18_14h15.06.123,exp_g2,2022.2.5,MacIntel,60.0024001,,,,,,,092,l1,f,sp,na,audio/092.wav,,l1_f_sp_na_092,,,,,,,image/america.png,image/spain.png,,,,,,,,,,,,,,,,,2,america,spain,,,,,,,,,,,"[""rshift""]",[1.379899999991153],0,31,31,31,1,
027,001,2023-10-18_14h15.06.123,exp_g2,2022.2.5,MacIntel,60.0024001,,,,,,,143,l2,t,es,f0u,audio/143.wav,,l2_t_es_f0u_143,,,,,,,image/america.png,image/spain.png,,,,,,,,,,,,,,,,,2,america,spain,,,,,,,,,,,"[""lshift"",""rshift""]","[1.1842000000029884,3.250900000005913]",0,32,32,47,1,1
027,001,2023-10-18_14h15.06.123,exp_g2,2022.2.5,MacIntel,60.0024001,,,,,,,082,l1,f,se,na,audio/082.wav,,l1_f_se_na_082,,,,,,,image/america.png,image/spain.png,,,,,,,,,,,,,,,,,2,america,spain,,,,,,,,,,,"[""rshift""]",[1.5341999999880045],0,33,33,21,1,1
027,001,2023-10-18_14h15.06.123,exp_g2,2022.2.5,MacIntel,60.0024001,,,,,,,145,l2,t,es,f0u,audio/145.wav,,l2_t_es_f0u_145,,,,,,,image/america.png,image/spain.png,,,,,,,,,,,,,,,,,2,america,spain,,,,,,,,,,,"[""lshift"",""rshift""]","[1.6172000000029811,2.574599999994007]",0,34,34,49,1,1
027,001,2023-10-18_14h15.06.123,exp_g2,2022.2.5,MacIntel,60.0024001,,,,,,,095,l1,f,sp,na,audio/095.wav,,l1_f_sp_na_095,,,,,,,image/america.png,image/spain.png,,,,,,,,,,,,,,,,,2,america,spain,,,,,,,,,,,"[""rshift""]",[1.3682999999970207],0,35,35,34,1,
027,001,2023-10-18_14h15.06.123,exp_g2,2022.2.5,MacIntel,60.0024001,,,,,,,141,l2,t,es,f0u,audio/141.wav,,l2_t_es_f0u_141,,,,,,,image/america.png,image/spain.png,,,,,,,,,,,,,,,,,2,america,spain,,,,,,,,,,,"[""lshift"",""rshift""]","[1.517099999994116,2.000900000006027]",0,36,36,45,1,1
027,001,2023-10-18_14h15.06.123,exp_g2,2022.2.5,MacIntel,60.0024001,,,,,,,150,l2,t,es,f0u,audio/150.wav,,l2_t_es_f0u_150,,,,,,,image/america.png,image/spain.png,,,,,,,,,,,,,,,,,2,america,spain,,,,,,,,,,,"[""lshift"",""rshift""]","[1.5856000000089807,2.251900000006003]",0,37,37,54,1,1
027,001,2023-10-18_14h15.06.123,exp_g2,2022.2.5,MacIntel,60.0024001,,,,,,,091,l1,f,sp,na,audio/091.wav,,l1_f_sp_na_091,,,,,,,image/america.png,image/spain.png,,,,,,,,,,,,,,,,,2,america,spain,,,,,,,,,,,"[""rshift""]",[2.0250999999940404],0,38,38,30,1,
027,001,2023-10-18_14h15.06.123,exp_g2,2022.2.5,MacIntel,60.0024001,,,,,,,014,l1,t,es,na,audio/014.wav,,l1_t_es_na_014,,,,,,,image/america.png,image/spain.png,,,,,,,,,,,,,,,,,2,america,spain,,,,,,,,,,,"[""lshift"",""rshift""]","[1.4927999999970325,1.9927000000029693]",0,39,39,38,1,1
027,001,2023-10-18_14h15.06.123,exp_g2,2022.2.5,MacIntel,60.0024001,,,,,,,078,l1,f,se,na,audio/078.wav,,l1_f_se_na_078,,,,,,,image/america.png,image/spain.png,,,,,,,,,,,,,,,,,2,america,spain,,,,,,,,,,,"[""lshift"",""rshift"",""rshift"",""lshift""]","[2.1008000000118727,2.2344000000059623,3.0174000000059777,3.131999999999948]",0,40,40,17,1,1
027,001,2023-10-18_14h15.06.123,exp_g2,2022.2.5,MacIntel,60.0024001,,,,,,,067,l1,f,en,na,audio/067.wav,,l1_f_en_na_067,,,,,,,image/america.png,image/spain.png,,,,,,,,,,,,,,,,,2,america,spain,,,,,,,,,,,"[""lshift""]",[1.6175000000000637],0,41,41,6,1,
027,001,2023-10-18_14h15.06.123,exp_g2,2022.2.5,MacIntel,60.0024001,,,,,,,015,l1,t,es,na,audio/015.wav,,l1_t_es_na_015,,,,,,,image/america.png,image/spain.png,,,,,,,,,,,,,,,,,2,america,spain,,,,,,,,,,,"[""lshift"",""rshift""]","[1.8452000000030466,2.31729999999709]",0,42,42,39,1,1
027,001,2023-10-18_14h15.06.123,exp_g2,2022.2.5,MacIntel,60.0024001,,,,,,,019,l1,t,es,na,audio/019.wav,,l1_t_es_na_019,,,,,,,image/america.png,image/spain.png,,,,,,,,,,,,,,,,,2,america,spain,,,,,,,,,,,"[""lshift"",""rshift""]","[1.6509000000058904,2.6837000000028866]",0,43,43,43,1,1
027,001,2023-10-18_14h15.06.123,exp_g2,2022.2.5,MacIntel,60.0024001,,,,,,,068,l1,f,en,na,audio/068.wav,,l1_f_en_na_068,,,,,,,image/america.png,image/spain.png,,,,,,,,,,,,,,,,,2,america,spain,,,,,,,,,,,"[""lshift""]",[1.201099999994085],0,44,44,7,1,
027,001,2023-10-18_14h15.06.123,exp_g2,2022.2.5,MacIntel,60.0024001,,,,,,,146,l2,t,es,f0u,audio/146.wav,,l2_t_es_f0u_146,,,,,,,image/america.png,image/spain.png,,,,,,,,,,,,,,,,,2,america,spain,,,,,,,,,,,"[""lshift"",""rshift""]","[1.384599999994066,2.697999999999979]",0,45,45,50,1,1
027,001,2023-10-18_14h15.06.123,exp_g2,2022.2.5,MacIntel,60.0024001,,,,,,,073,l1,f,en,na,audio/073.wav,,l1_f_en_na_073,,,,,,,image/america.png,image/spain.png,,,,,,,,,,,,,,,,,2,america,spain,,,,,,,,,,,"[""lshift""]",[1.3845000000000027],0,46,46,12,1,
027,001,2023-10-18_14h15.06.123,exp_g2,2022.2.5,MacIntel,60.0024001,,,,,,,080,l1,f,se,na,audio/080.wav,,l1_f_se_na_080,,,,,,,image/america.png,image/spain.png,,,,,,,,,,,,,,,,,2,america,spain,,,,,,,,,,,"[""lshift"",""rshift""]","[1.085200000002942,1.4587000000029775]",0,47,47,19,1,1
027,001,2023-10-18_14h15.06.123,exp_g2,2022.2.5,MacIntel,60.0024001,,,,,,,087,l1,f,sp,na,audio/087.wav,,l1_f_sp_na_087,,,,,,,image/america.png,image/spain.png,,,,,,,,,,,,,,,,,2,america,spain,,,,,,,,,,,"[""rshift""]",[1.5760000000000218],0,48,48,26,1,
027,001,2023-10-18_14h15.06.123,exp_g2,2022.2.5,MacIntel,60.0024001,,,,,,,142,l2,t,es,f0u,audio/142.wav,,l2_t_es_f0u_142,,,,,,,image/america.png,image/spain.png,,,,,,,,,,,,,,,,,2,america,spain,,,,,,,,,,,"[""lshift"",""rshift""]","[1.1675000000000182,1.9011000000090235]",0,49,49,46,1,1
027,001,2023-10-18_14h15.06.123,exp_g2,2022.2.5,MacIntel,60.0024001,,,,,,,093,l1,f,sp,na,audio/093.wav,,l1_f_sp_na_093,,,,,,,image/america.png,image/spain.png,,,,,,,,,,,,,,,,,2,america,spain,,,,,,,,,,,"[""rshift""]",[1.4006999999880918],0,50,50,32,1,
027,001,2023-10-18_14h15.06.123,exp_g2,2022.2.5,MacIntel,60.0024001,,,,,,,069,l1,f,en,na,audio/069.wav,,l1_f_en_na_069,,,,,,,image/america.png,image/spain.png,,,,,,,,,,,,,,,,,2,america,spain,,,,,,,,,,,"[""lshift""]",[1.618099999994115],0,51,51,8,1,
027,001,2023-10-18_14h15.06.123,exp_g2,2022.2.5,MacIntel,60.0024001,,,,,,,062,l1,f,en,na,audio/062.wav,,l1_f_en_na_062,,,,,,,image/america.png,image/spain.png,,,,,,,,,,,,,,,,,2,america,spain,,,,,,,,,,,"[""lshift""]",[1.3338999999909902],0,52,52,1,1,
027,001,2023-10-18_14h15.06.123,exp_g2,2022.2.5,MacIntel,60.0024001,,,,,,,085,l1,f,se,na,audio/085.wav,,l1_f_se_na_085,,,,,,,image/america.png,image/spain.png,,,,,,,,,,,,,,,,,2,america,spain,,,,,,,,,,,"[""rshift"",""lshift""]","[1.2842999999969607,2.4508999999910657]",0,53,53,24,1,1
027,001,2023-10-18_14h15.06.123,exp_g2,2022.2.5,MacIntel,60.0024001,,,,,,,016,l1,t,es,na,audio/016.wav,,l1_t_es_na_016,,,,,,,image/america.png,image/spain.png,,,,,,,,,,,,,,,,,2,america,spain,,,,,,,,,,,"[""lshift"",""rshift""]","[1.5342999999969607,2.918099999993956]",0,54,54,40,1,1
027,001,2023-10-18_14h15.06.123,exp_g2,2022.2.5,MacIntel,60.0024001,,,,,,,,,,,,,,,,,,,,,,,,,,,,,,,,,,,,,,,,,,,,,,,,,,,,,,,,,,,
