participant,session,date,expName,psychopyVersion,OS,frameRate,exp1_trial_key.keys,exp1_trial_loop.thisRepN,exp1_trial_loop.thisTrialN,exp1_trial_loop.thisN,exp1_trial_loop.thisIndex,exp1_trial_loop.ran,num,list,cond,lang,type,sound_dir,phr,sent_code,mat,mat_num,emb_num,emb,cut,mat_f0_c,left,right,correct_img,correct_key,exp1_trial_key.rt,exp1_key.keys,exp1_key.corr,exp1_key.rt,exp1_loop.thisRepN,exp1_loop.thisTrialN,exp1_loop.thisN,exp1_loop.thisIndex,exp1_loop.ran,exp_num,image,image_alt,left_img,right_img,image_dir,exp2_trial_key.keys,exp2_trial_key.rt,exp2_trial_loop.thisRepN,exp2_trial_loop.thisTrialN,exp2_trial_loop.thisN,exp2_trial_loop.thisIndex,exp2_trial_loop.ran,exp2_key.keys,exp2_key.rt,exp2_loop.thisRepN,exp2_loop.thisTrialN,exp2_loop.thisN,exp2_loop.thisIndex,exp2_loop.ran,cs
054,001,2023-10-12_12h40.24.192,exp_g2,2022.2.5,MacIntel,60.0024001,,,,,,,,,,,,,,,,,,,,,,,,,,,,,,,,,,,,,,,,,,,,,,,,,,,,,,
054,001,2023-10-12_12h40.24.192,exp_g2,2022.2.5,MacIntel,60.0024001,,0,0,0,0,1,tr1,lt,tr,en,na,practice_trial/audio/tr1.wav,Where are your kids?,lt_tr_en_na_tr1,-,-,-,-,-,-,image/kids.png,image/plates.png,kids,lshift,,,,,,,,,,,,,,,,,,,,,,,,,,,,,,
054,001,2023-10-12_12h40.24.192,exp_g2,2022.2.5,MacIntel,60.0024001,"[""lshift""]",0,1,1,1,1,tr2,lt,tr,en,na,practice_trial/audio/tr2.wav,Who is buying my car?,lt_tr_en_na_tr2,-,-,-,-,-,-,image/bag.png,image/car.png,car,rshift,[0.14140000000043074],,,,,,,,,,,,,,,,,,,,,,,,,,,,,
054,001,2023-10-12_12h40.24.192,exp_g2,2022.2.5,MacIntel,60.0024001,"[""lshift""]",0,2,2,2,1,tr3,lt,tr,sp,na,practice_trial/audio/tr3.wav,¿Dónde está mi perro?,lt_tr_sp_na_tr3,-,-,-,-,-,-,image/dog.png,image/grandma.png,dog,lshift,[2.4349999999999454],,,,,,,,,,,,,,,,,,,,,,,,,,,,,
054,001,2023-10-12_12h40.24.192,exp_g2,2022.2.5,MacIntel,60.0024001,"[""lshift""]",0,3,3,3,1,tr4,lt,tr,sp,na,practice_trial/audio/tr4.wav,¿De quién es la bolsa?,lt_tr_sp_na_tr4,-,-,-,-,-,-,image/shirt.png,image/bag.png,bag,rshift,[3.0170000000000528],,,,,,,,,,,,,,,,,,,,,,,,,,,,,
054,001,2023-10-12_12h40.24.192,exp_g2,2022.2.5,MacIntel,60.0024001,"[""lshift""]",0,4,4,4,1,tr5,lt,tr,se,na,practice_trial/audio/tr5.wav,¿Dónde encontraste sus donuts?,lt_tr_se_na_tr5,-,-,-,-,-,-,image/donut.png,image/cups.png,donut,lshift,[3.042500000000018],,,,,,,,,,,,,,,,,,,,,,,,,,,,,
054,001,2023-10-12_12h40.24.192,exp_g2,2022.2.5,MacIntel,60.0024001,"[""rshift""]",0,5,5,5,1,tr6,lt,tr,se,na,practice_trial/audio/tr6.wav,¿Cuándo compraste tu sweater?,lt_tr_se_na_tr6,-,-,-,-,-,-,image/chair.png,image/sweater.png,sweater,rshift,[2.896200000000249],,,,,,,,,,,,,,,,,,,,,,,,,,,,,
054,001,2023-10-12_12h40.24.192,exp_g2,2022.2.5,MacIntel,60.0024001,"[""lshift""]",0,6,6,6,1,tr7,lt,tr,es,na,practice_trial/audio/tr7.wav,Why do you have my camisa?,lt_tr_es_na_tr7,-,-,-,-,-,-,image/shirt.png,image/wallet.png,shirt,lshift,[2.9247000000001435],,,,,,,,,,,,,,,,,,,,,,,,,,,,,
054,001,2023-10-12_12h40.24.192,exp_g2,2022.2.5,MacIntel,60.0024001,"[""rshift""]",0,7,7,7,1,tr8,lt,tr,es,na,practice_trial/audio/tr8.wav,Where did you find his chanclas?,lt_tr_es_na_tr8,-,-,-,-,-,-,image/key.png,image/flipflops.png,flipflops,rshift,[2.375],,,,,,,,,,,,,,,,,,,,,,,,,,,,,
054,001,2023-10-12_12h40.24.192,exp_g2,2022.2.5,MacIntel,60.0024001,,,,,,,,,,,,,,,,,,,,,,,,,,,,,,,,,,,,,,,,,,,,,,,,,,,,,,
054,001,2023-10-12_12h40.24.192,exp_g2,2022.2.5,MacIntel,60.0024001,,,,,,,157,l1,t,es,f0c,audio/157.wav,,l1_t_es_f0c_157,,,,,,,image/jacket.png,image/shirt.png,jacket,lshift,,lshift,1,2.763,0,0,0,51,1,1,jacket,shirt,jacket,shirt,,,,,,,,,,,,,,,,
054,001,2023-10-12_12h40.24.192,exp_g2,2022.2.5,MacIntel,60.0024001,,,,,,,153,l1,t,es,f0c,audio/153.wav,,l1_t_es_f0c_153,,,,,,,image/cellphone.png,image/book.png,cellphone,lshift,,lshift,1,2.7087,0,1,1,47,1,1,cellphone,book,cellphone,book,,,,,,,,,,,,,,,,
054,001,2023-10-12_12h40.24.192,exp_g2,2022.2.5,MacIntel,60.0024001,,,,,,,108,l2,f,en,na,audio/108.wav,,l2_f_en_na_108,,,,,,,image/scarf.png,image/socks.png,socks,rshift,,rshift,1,2.8076,0,2,2,12,1,1,socks,scarf,scarf,socks,,,,,,,,,,,,,,,,
054,001,2023-10-12_12h40.24.192,exp_g2,2022.2.5,MacIntel,60.0024001,,,,,,,128,l2,f,sp,na,audio/128.wav,,l2_f_sp_na_128,,,,,,,image/cups.png,image/kids.png,kids,rshift,,lshift,0,3.3437,0,3,3,32,1,1,kids,cups,cups,kids,,,,,,,,,,,,,,,,
054,001,2023-10-12_12h40.24.192,exp_g2,2022.2.5,MacIntel,60.0024001,,,,,,,107,l2,f,en,na,audio/107.wav,,l2_f_en_na_107,,,,,,,image/man.png,image/cat.png,man,lshift,,lshift,1,2.7083,0,4,4,11,1,1,man,cat,man,cat,,,,,,,,,,,,,,,,
054,001,2023-10-12_12h40.24.192,exp_g2,2022.2.5,MacIntel,60.0024001,,,,,,,118,l2,f,se,na,audio/118.wav,,l2_f_se_na_118,,,,,,,image/icecream.png,image/donut.png,donut,rshift,,rshift,1,3.3997,0,5,5,22,1,1,donut,icecream,icecream,donut,,,,,,,,,,,,,,,,
054,001,2023-10-12_12h40.24.192,exp_g2,2022.2.5,MacIntel,60.0024001,,,,,,,096,l2,f,en,na,audio/096.wav,,l2_f_en_na_096,,,,,,,image/woman.png,image/cat.png,cat,rshift,,rshift,1,2.8259,0,6,6,0,1,1,cat,woman,woman,cat,../image/,,,,,,,,,,,,,,,
054,001,2023-10-12_12h40.24.192,exp_g2,2022.2.5,MacIntel,60.0024001,,,,,,,112,l2,f,se,na,audio/112.wav,,l2_f_se_na_112,,,,,,,image/burger.png,image/hotdog.png,hotdog,rshift,,rshift,1,2.3093,0,7,7,16,1,1,hotdog,burger,burger,hotdog,,,,,,,,,,,,,,,,
054,001,2023-10-12_12h40.24.192,exp_g2,2022.2.5,MacIntel,60.0024001,,,,,,,159,l1,t,es,f0c,audio/159.wav,,l1_t_es_f0c_159,,,,,,,image/restaurant.png,image/hotel.png,restaurant,lshift,,lshift,1,3.6228,0,8,8,53,1,1,restaurant,hotel,restaurant,hotel,,,,,,,,,,,,,,,,
054,001,2023-10-12_12h40.24.192,exp_g2,2022.2.5,MacIntel,60.0024001,,,,,,,028,l2,t,es,na,audio/028.wav,,l2_t_es_na_028,,,,,,,image/pants.png,image/glasses.png,glasses,rshift,,rshift,1,3.0743,0,9,9,42,1,1,glasses,pants,pants,glasses,,,,,,,,,,,,,,,,
054,001,2023-10-12_12h40.24.192,exp_g2,2022.2.5,MacIntel,60.0024001,,,,,,,106,l2,f,en,na,audio/106.wav,,l2_f_en_na_106,,,,,,,image/wallet.png,image/computer.png,computer,rshift,,rshift,1,3.18,0,10,10,10,1,1,computer,wallet,wallet,computer,,,,,,,,,,,,,,,,
054,001,2023-10-12_12h40.24.192,exp_g2,2022.2.5,MacIntel,60.0024001,,,,,,,152,l1,t,es,f0c,audio/152.wav,,l1_t_es_f0c_152,,,,,,,image/car.png,image/grandma.png,grandma,rshift,,rshift,1,2.6077,0,11,11,46,1,1,grandma,car,car,grandma,,,,,,,,,,,,,,,,
054,001,2023-10-12_12h40.24.192,exp_g2,2022.2.5,MacIntel,60.0024001,,,,,,,027,l2,t,es,na,audio/027.wav,,l2_t_es_na_027,,,,,,,image/shirt.png,image/book.png,shirt,lshift,,lshift,1,2.0583,0,12,12,41,1,1,shirt,book,shirt,book,,,,,,,,,,,,,,,,
054,001,2023-10-12_12h40.24.192,exp_g2,2022.2.5,MacIntel,60.0024001,,,,,,,116,l2,f,se,na,audio/116.wav,,l2_f_se_na_116,,,,,,,image/sweatpants.png,image/boxers.png,boxers,rshift,,rshift,1,2.6367,0,13,13,20,1,1,boxers,sweatpants,sweatpants,boxers,,,,,,,,,,,,,,,,
054,001,2023-10-12_12h40.24.192,exp_g2,2022.2.5,MacIntel,60.0024001,,,,,,,029,l2,t,es,na,audio/029.wav,,l2_t_es_na_029,,,,,,,image/armchair.png,image/ring.png,armchair,lshift,,lshift,1,2.7913,0,14,14,43,1,1,armchair,ring,armchair,ring,,,,,,,,,,,,,,,,
054,001,2023-10-12_12h40.24.192,exp_g2,2022.2.5,MacIntel,60.0024001,,,,,,,021,l2,t,es,na,audio/021.wav,,l2_t_es_na_021,,,,,,,image/jacket.png,image/flipflops.png,jacket,lshift,,lshift,1,2.2567,0,15,15,35,1,1,jacket,flipflops,jacket,flipflops,,,,,,,,,,,,,,,,
054,001,2023-10-12_12h40.24.192,exp_g2,2022.2.5,MacIntel,60.0024001,,,,,,,120,l2,f,se,na,audio/120.wav,,l2_f_se_na_120,,,,,,,image/glasses.png,image/joycons.png,joycons,rshift,,rshift,1,2.6924,0,16,16,24,1,1,joycons,glasses,glasses,joycons,,,,,,,,,,,,,,,,
054,001,2023-10-12_12h40.24.192,exp_g2,2022.2.5,MacIntel,60.0024001,,,,,,,119,l2,f,se,na,audio/119.wav,,l2_f_se_na_119,,,,,,,image/penthouse.png,image/rocket.png,penthouse,lshift,,lshift,1,2.7192,0,17,17,23,1,1,penthouse,rocket,penthouse,rocket,,,,,,,,,,,,,,,,
054,001,2023-10-12_12h40.24.192,exp_g2,2022.2.5,MacIntel,60.0024001,,,,,,,115,l2,f,se,na,audio/115.wav,,l2_f_se_na_115,,,,,,,image/notebook.png,image/cellphone.png,notebook,lshift,,lshift,1,2.5127,0,18,18,19,1,1,notebook,cellphone,notebook,cellphone,,,,,,,,,,,,,,,,
054,001,2023-10-12_12h40.24.192,exp_g2,2022.2.5,MacIntel,60.0024001,,,,,,,125,l2,f,sp,na,audio/125.wav,,l2_f_sp_na_125,,,,,,,image/desk.png,image/bottle.png,desk,lshift,,rshift,0,3.8903,0,19,19,29,1,1,desk,bottle,desk,bottle,,,,,,,,,,,,,,,,
054,001,2023-10-12_12h40.24.192,exp_g2,2022.2.5,MacIntel,60.0024001,,,,,,,097,l2,f,en,na,audio/097.wav,,l2_f_en_na_097,,,,,,,image/ring.png,image/belt.png,ring,lshift,,lshift,1,2.294,0,20,20,1,1,1,ring,belt,ring,belt,,,,,,,,,,,,,,,,
054,001,2023-10-12_12h40.24.192,exp_g2,2022.2.5,MacIntel,60.0024001,,,,,,,114,l2,f,se,na,audio/114.wav,,l2_f_se_na_114,,,,,,,image/jeans.png,image/sweatpants.png,sweatpants,rshift,,lshift,0,2.5094,0,21,21,18,1,1,sweatpants,jeans,jeans,sweatpants,,,,,,,,,,,,,,,,
054,001,2023-10-12_12h40.24.192,exp_g2,2022.2.5,MacIntel,60.0024001,,,,,,,025,l2,t,es,na,audio/025.wav,,l2_t_es_na_025,,,,,,,image/cellphone.png,image/truck.png,cellphone,lshift,,lshift,1,2.4311,0,22,22,39,1,1,cellphone,truck,cellphone,truck,,,,,,,,,,,,,,,,
054,001,2023-10-12_12h40.24.192,exp_g2,2022.2.5,MacIntel,60.0024001,,,,,,,109,l2,f,en,na,audio/109.wav,,l2_f_en_na_109,,,,,,,image/fish.png,image/woman.png,fish,lshift,,lshift,1,1.8405,0,23,23,13,1,1,fish,woman,fish,woman,,,,,,,,,,,,,,,,
054,001,2023-10-12_12h40.24.192,exp_g2,2022.2.5,MacIntel,60.0024001,,,,,,,129,l2,f,sp,na,audio/129.wav,,l2_f_sp_na_129,,,,,,,image/bag.png,image/chair.png,bag,lshift,,lshift,1,3.8497,0,24,24,33,1,1,bag,chair,bag,chair,,,,,,,,,,,,,,,,
054,001,2023-10-12_12h40.24.192,exp_g2,2022.2.5,MacIntel,60.0024001,,,,,,,127,l2,f,sp,na,audio/127.wav,,l2_f_sp_na_127,,,,,,,image/cat.png,image/dog.png,cat,lshift,,rshift,0,3.8253,0,25,25,31,1,1,cat,dog,cat,dog,,,,,,,,,,,,,,,,
054,001,2023-10-12_12h40.24.192,exp_g2,2022.2.5,MacIntel,60.0024001,,,,,,,105,l2,f,en,na,audio/105.wav,,l2_f_en_na_105,,,,,,,image/bed.png,image/plane.png,bed,lshift,,lshift,1,3.0237,0,26,26,9,1,1,bed,plane,bed,plane,,,,,,,,,,,,,,,,
054,001,2023-10-12_12h40.24.192,exp_g2,2022.2.5,MacIntel,60.0024001,,,,,,,122,l2,f,sp,na,audio/122.wav,,l2_f_sp_na_122,,,,,,,image/desk.png,image/chair.png,chair,rshift,,rshift,1,3.3501,0,27,27,26,1,1,chair,desk,desk,chair,,,,,,,,,,,,,,,,
054,001,2023-10-12_12h40.24.192,exp_g2,2022.2.5,MacIntel,60.0024001,,,,,,,117,l2,f,se,na,audio/117.wav,,l2_f_se_na_117,,,,,,,image/spongebob.png,image/mickeymouse.png,spongebob,lshift,,lshift,1,2.6501,0,28,28,21,1,1,spongebob,mickeymouse,spongebob,mickeymouse,,,,,,,,,,,,,,,,
054,001,2023-10-12_12h40.24.192,exp_g2,2022.2.5,MacIntel,60.0024001,,,,,,,102,l2,f,en,na,audio/102.wav,,l2_f_en_na_102,,,,,,,image/socks.png,image/book.png,books,rshift,,rshift,1,2.6344,0,29,29,6,1,1,books,socks,socks,book,,,,,,,,,,,,,,,,
054,001,2023-10-12_12h40.24.192,exp_g2,2022.2.5,MacIntel,60.0024001,,,,,,,121,l2,f,sp,na,audio/121.wav,,l2_f_sp_na_121,,,,,,,image/shoe.png,image/glasses.png,shoe,lshift,,lshift,1,2.3615,0,30,30,25,1,1,shoe,glasses,shoe,glasses,,,,,,,,,,,,,,,,
054,001,2023-10-12_12h40.24.192,exp_g2,2022.2.5,MacIntel,60.0024001,,,,,,,111,l2,f,se,na,audio/111.wav,,l2_f_se_na_111,,,,,,,image/mashedpotatoes.png,image/donut.png,mashedpotatoes,lshift,,lshift,1,2.9666,0,31,31,15,1,1,mashedpotatoes,donut,mashedpotatoes,donut,,,,,,,,,,,,,,,,
054,001,2023-10-12_12h40.24.192,exp_g2,2022.2.5,MacIntel,60.0024001,,,,,,,022,l2,t,es,na,audio/022.wav,,l2_t_es_na_022,,,,,,,image/dog.png,image/cat.png,cat,rshift,,rshift,1,3.3995,0,32,32,36,1,1,cat,dog,dog,cat,,,,,,,,,,,,,,,,
054,001,2023-10-12_12h40.24.192,exp_g2,2022.2.5,MacIntel,60.0024001,,,,,,,158,l1,t,es,f0c,audio/158.wav,,l1_t_es_f0c_158,,,,,,,image/pants.png,image/shirt.png,shirt,rshift,,rshift,1,3.2273,0,33,33,52,1,1,shirt,pants,pants,shirt,,,,,,,,,,,,,,,,
054,001,2023-10-12_12h40.24.192,exp_g2,2022.2.5,MacIntel,60.0024001,,,,,,,155,l1,t,es,f0c,audio/155.wav,,l1_t_es_f0c_155,,,,,,,image/flipflops.png,image/flower.png,flipflops,lshift,,lshift,1,2.3422,0,34,34,49,1,1,flipflops,flower,flipflops,flower,,,,,,,,,,,,,,,,
054,001,2023-10-12_12h40.24.192,exp_g2,2022.2.5,MacIntel,60.0024001,,,,,,,099,l2,f,en,na,audio/099.wav,,l2_f_en_na_099,,,,,,,image/dog.png,image/cat.png,dog,lshift,,lshift,1,2.1399,0,35,35,3,1,1,dog,cat,dog,cat,,,,,,,,,,,,,,,,
054,001,2023-10-12_12h40.24.192,exp_g2,2022.2.5,MacIntel,60.0024001,,,,,,,156,l1,t,es,f0c,audio/156.wav,,l1_t_es_f0c_156,,,,,,,image/city.png,image/village.png,village,rshift,,rshift,1,2.6674,0,36,36,50,1,1,village,city,city,village,,,,,,,,,,,,,,,,
054,001,2023-10-12_12h40.24.192,exp_g2,2022.2.5,MacIntel,60.0024001,,,,,,,026,l2,t,es,na,audio/026.wav,,l2_t_es_na_026,,,,,,,image/village.png,image/grandma.png,grandma,rshift,,rshift,1,2.3851,0,37,37,40,1,1,grandma,village,village,grandma,,,,,,,,,,,,,,,,
054,001,2023-10-12_12h40.24.192,exp_g2,2022.2.5,MacIntel,60.0024001,,,,,,,103,l2,f,en,na,audio/103.wav,,l2_f_en_na_103,,,,,,,image/toys.png,image/sneakers.png,toys,lshift,,lshift,1,2.3404,0,38,38,7,1,1,toys,sneakers,toys,sneakers,,,,,,,,,,,,,,,,
054,001,2023-10-12_12h40.24.192,exp_g2,2022.2.5,MacIntel,60.0024001,,,,,,,151,l1,t,es,f0c,audio/151.wav,,l1_t_es_f0c_151,,,,,,,image/cat.png,image/flower.png,cat,lshift,,lshift,1,2.3964,0,39,39,45,1,1,cat,flower,cat,flower,,,,,,,,,,,,,,,,
054,001,2023-10-12_12h40.24.192,exp_g2,2022.2.5,MacIntel,60.0024001,,,,,,,098,l2,f,en,na,audio/098.wav,,l2_f_en_na_098,,,,,,,image/man.png,image/woman.png,woman,rshift,,rshift,1,2.1352,0,40,40,2,1,1,woman,man,man,woman,,,,,,,,,,,,,,,,
054,001,2023-10-12_12h40.24.192,exp_g2,2022.2.5,MacIntel,60.0024001,,,,,,,101,l2,f,en,na,audio/101.wav,,l2_f_en_na_101,,,,,,,image/computer.png,image/bag.png,computer,lshift,,lshift,1,2.3769,0,41,41,5,1,1,computer,bag,computer,bag,,,,,,,,,,,,,,,,
054,001,2023-10-12_12h40.24.192,exp_g2,2022.2.5,MacIntel,60.0024001,,,,,,,023,l2,t,es,na,audio/023.wav,,l2_t_es_na_023,,,,,,,image/wine.png,image/cellphone.png,wine,lshift,,lshift,1,2.8016,0,42,42,37,1,1,wine,cellphone,wine,cellphone,,,,,,,,,,,,,,,,
054,001,2023-10-12_12h40.24.192,exp_g2,2022.2.5,MacIntel,60.0024001,,,,,,,030,l2,t,es,na,audio/030.wav,,l2_t_es_na_030,,,,,,,image/flipflops.png,image/boy.png,boy,rshift,,rshift,1,2.958,0,43,43,44,1,1,boy,flipflops,flipflops,boy,,,,,,,,,,,,,,,,
054,001,2023-10-12_12h40.24.192,exp_g2,2022.2.5,MacIntel,60.0024001,,,,,,,123,l2,f,sp,na,audio/123.wav,,l2_f_sp_na_123,,,,,,,image/sweater.png,image/cellphone.png,sweater,lshift,,lshift,1,2.2661,0,44,44,27,1,1,sweater,cellphone,sweater,cellphone,,,,,,,,,,,,,,,,
054,001,2023-10-12_12h40.24.192,exp_g2,2022.2.5,MacIntel,60.0024001,,,,,,,113,l2,f,se,na,audio/113.wav,,l2_f_se_na_113,,,,,,,image/loafers.png,image/sneakers.png,loafers,lshift,,lshift,1,2.2241,0,45,45,17,1,1,loafers,sneakers,loafers,sneakers,,,,,,,,,,,,,,,,
054,001,2023-10-12_12h40.24.192,exp_g2,2022.2.5,MacIntel,60.0024001,,,,,,,126,l2,f,sp,na,audio/126.wav,,l2_f_sp_na_126,,,,,,,image/backpack.png,image/key.png,key,rshift,,rshift,1,2.8229,0,46,46,30,1,1,key,backpack,backpack,key,,,,,,,,,,,,,,,,
054,001,2023-10-12_12h40.24.192,exp_g2,2022.2.5,MacIntel,60.0024001,,,,,,,160,l1,t,es,f0c,audio/160.wav,,l1_t_es_f0c_160,,,,,,,image/ring.png,image/bracelet.png,bracelet,rshift,,rshift,1,3.9841,0,47,47,54,1,1,bracelet,ring,ring,bracelet,,,,,,,,,,,,,,,,
054,001,2023-10-12_12h40.24.192,exp_g2,2022.2.5,MacIntel,60.0024001,,,,,,,124,l2,f,sp,na,audio/124.wav,,l2_f_sp_na_124,,,,,,,image/bag.png,image/bed.png,bed,rshift,,rshift,1,2.3622,0,48,48,28,1,1,bed,bag,bag,bed,,,,,,,,,,,,,,,,
054,001,2023-10-12_12h40.24.192,exp_g2,2022.2.5,MacIntel,60.0024001,,,,,,,154,l1,t,es,f0c,audio/154.wav,,l1_t_es_f0c_154,,,,,,,image/basket.png,image/truck.png,truck,rshift,,lshift,0,2.9724,0,49,49,48,1,1,truck,basket,basket,truck,,,,,,,,,,,,,,,,
054,001,2023-10-12_12h40.24.192,exp_g2,2022.2.5,MacIntel,60.0024001,,,,,,,104,l2,f,en,na,audio/104.wav,,l2_f_en_na_104,,,,,,,image/shirt.png,image/bag.png,bag,rshift,,rshift,1,2.0671,0,50,50,8,1,1,bag,shirt,shirt,bag,,,,,,,,,,,,,,,,
054,001,2023-10-12_12h40.24.192,exp_g2,2022.2.5,MacIntel,60.0024001,,,,,,,100,l2,f,en,na,audio/100.wav,,l2_f_en_na_100,,,,,,,image/wallet.png,image/scarf.png,scarf,rshift,,rshift,1,2.0785,0,51,51,4,1,1,scarf,wallet,wallet,scarf,,,,,,,,,,,,,,,,
054,001,2023-10-12_12h40.24.192,exp_g2,2022.2.5,MacIntel,60.0024001,,,,,,,130,l2,f,sp,na,audio/130.wav,,l2_f_sp_na_130,,,,,,,image/socks.png,image/glasses.png,glasses,rshift,,rshift,1,2.348,0,52,52,34,1,1,glasses,socks,socks,glasses,,,,,,,,,,,,,,,,
054,001,2023-10-12_12h40.24.192,exp_g2,2022.2.5,MacIntel,60.0024001,,,,,,,024,l2,t,es,na,audio/024.wav,,l2_t_es_na_024,,,,,,,image/bed.png,image/jug.png,jug,rshift,,rshift,1,3.1288,0,53,53,38,1,1,jug,bed,bed,jug,,,,,,,,,,,,,,,,
054,001,2023-10-12_12h40.24.192,exp_g2,2022.2.5,MacIntel,60.0024001,,,,,,,110,l2,f,en,na,audio/110.wav,,l2_f_en_na_110,,,,,,,image/dog.png,image/cat.png,cat,rshift,,rshift,1,2.4685,0,54,54,14,1,1,cat,dog,dog,cat,,,,,,,,,,,,,,,,
054,001,2023-10-12_12h40.24.192,exp_g2,2022.2.5,MacIntel,60.0024001,,,,,,,,,,,,,,,,,,,,,,,,,,,,,,,,,,,,,,,,,,,,,,,,,,,,,,
054,001,2023-10-12_12h40.24.192,exp_g2,2022.2.5,MacIntel,60.0024001,,,,,,,tr1,lt,tr,en,na,practice_trial/audio/tr1.wav,Where are your kids?,lt_tr_en_na_tr1,-,-,-,-,-,-,image/america.png,image/spain.png,,,,,,,,,,,,,,,,,,"[""lshift""]",[1.9120000000000346],0,0,0,0,1,,,,,,,,
054,001,2023-10-12_12h40.24.192,exp_g2,2022.2.5,MacIntel,60.0024001,,,,,,,tr2,lt,tr,en,na,practice_trial/audio/tr2.wav,Who is buying my car?,lt_tr_en_na_tr2,-,-,-,-,-,-,image/america.png,image/spain.png,,,,,,,,,,,,,,,,,,"[""lshift""]",[2.70900000000006],0,1,1,1,1,,,,,,,,
054,001,2023-10-12_12h40.24.192,exp_g2,2022.2.5,MacIntel,60.0024001,,,,,,,tr3,lt,tr,sp,na,practice_trial/audio/tr3.wav,¿Dónde está mi perro?,lt_tr_sp_na_tr3,-,-,-,-,-,-,image/america.png,image/spain.png,,,,,,,,,,,,,,,,,,"[""rshift""]",[1.7170000000000982],0,2,2,2,1,,,,,,,,
054,001,2023-10-12_12h40.24.192,exp_g2,2022.2.5,MacIntel,60.0024001,,,,,,,tr4,lt,tr,sp,na,practice_trial/audio/tr4.wav,¿De quién es la bolsa?,lt_tr_sp_na_tr4,-,-,-,-,-,-,image/america.png,image/spain.png,,,,,,,,,,,,,,,,,,"[""rshift""]",[1.8329999999998563],0,3,3,3,1,,,,,,,,
054,001,2023-10-12_12h40.24.192,exp_g2,2022.2.5,MacIntel,60.0024001,,,,,,,tr5,lt,tr,se,na,practice_trial/audio/tr5.wav,¿Dónde encontraste sus donuts?,lt_tr_se_na_tr5,-,-,-,-,-,-,image/america.png,image/spain.png,,,,,,,,,,,,,,,,,,"[""rshift"",""lshift""]","[1.6014000000004671,3.00640000000044]",0,4,4,4,1,,,,,,,,
054,001,2023-10-12_12h40.24.192,exp_g2,2022.2.5,MacIntel,60.0024001,,,,,,,tr6,lt,tr,se,na,practice_trial/audio/tr6.wav,¿Cuándo compraste tu sweater?,lt_tr_se_na_tr6,-,-,-,-,-,-,image/america.png,image/spain.png,,,,,,,,,,,,,,,,,,"[""rshift"",""lshift""]","[1.5047000000001844,2.5010999999994965]",0,5,5,5,1,,,,,,,,
054,001,2023-10-12_12h40.24.192,exp_g2,2022.2.5,MacIntel,60.0024001,,,,,,,tr7,lt,tr,es,na,practice_trial/audio/tr7.wav,Why do you have my camisa?,lt_tr_es_na_tr7,-,-,-,-,-,-,image/america.png,image/spain.png,,,,,,,,,,,,,,,,,,"[""lshift"",""rshift""]","[1.531100000000606,2.4501000000007025]",0,6,6,6,1,,,,,,,,
054,001,2023-10-12_12h40.24.192,exp_g2,2022.2.5,MacIntel,60.0024001,,,,,,,tr8,lt,tr,es,na,practice_trial/audio/tr8.wav,Where did you find his chanclas?,lt_tr_es_na_tr8,-,-,-,-,-,-,image/america.png,image/spain.png,,,,,,,,,,,,,,,,,,"[""lshift"",""rshift""]","[1.4669000000003507,2.056900000000496]",0,7,7,7,1,,,,,,,,
054,001,2023-10-12_12h40.24.192,exp_g2,2022.2.5,MacIntel,60.0024001,,,,,,,,,,,,,,,,,,,,,,,,,,,,,,,,,,,,,,,,,,,,,,,,,,,,,,
054,001,2023-10-12_12h40.24.192,exp_g2,2022.2.5,MacIntel,60.0024001,,,,,,,089,l1,f,sp,na,audio/089.wav,,l1_f_sp_na_089,,,,,,,image/america.png,image/spain.png,,,,,,,,,,,,2,america,spain,,,,,,,,,,,"[""rshift""]",[1.3545999999996639],0,0,0,28,1,
054,001,2023-10-12_12h40.24.192,exp_g2,2022.2.5,MacIntel,60.0024001,,,,,,,013,l1,t,es,na,audio/013.wav,,l1_t_es_na_013,,,,,,,image/america.png,image/spain.png,,,,,,,,,,,,2,america,spain,,,,,,,,,,,"[""lshift"",""rshift""]","[1.5009999999999764,2.875]",0,1,1,37,1,1
054,001,2023-10-12_12h40.24.192,exp_g2,2022.2.5,MacIntel,60.0024001,,,,,,,073,l1,f,en,na,audio/073.wav,,l1_f_en_na_073,,,,,,,image/america.png,image/spain.png,,,,,,,,,,,,2,america,spain,,,,,,,,,,,"[""lshift""]",[1.29950000000008],0,2,2,12,1,
054,001,2023-10-12_12h40.24.192,exp_g2,2022.2.5,MacIntel,60.0024001,,,,,,,088,l1,f,sp,na,audio/088.wav,,l1_f_sp_na_088,,,,,,,image/america.png,image/spain.png,,,,,,,,,,,,2,america,spain,,,,,,,,,,,"[""rshift""]",[1.2338000000008833],0,3,3,27,1,
054,001,2023-10-12_12h40.24.192,exp_g2,2022.2.5,MacIntel,60.0024001,,,,,,,085,l1,f,se,na,audio/085.wav,,l1_f_se_na_085,,,,,,,image/america.png,image/spain.png,,,,,,,,,,,,2,america,spain,,,,,,,,,,,"[""rshift"",""lshift""]","[1.5507999999997537,2.6507000000001426]",0,4,4,24,1,1
054,001,2023-10-12_12h40.24.192,exp_g2,2022.2.5,MacIntel,60.0024001,,,,,,,074,l1,f,en,na,audio/074.wav,,l1_f_en_na_074,,,,,,,image/america.png,image/spain.png,,,,,,,,,,,,2,america,spain,,,,,,,,,,,"[""lshift""]",[1.7550000000001091],0,5,5,13,1,
054,001,2023-10-12_12h40.24.192,exp_g2,2022.2.5,MacIntel,60.0024001,,,,,,,095,l1,f,sp,na,audio/095.wav,,l1_f_sp_na_095,,,,,,,image/america.png,image/spain.png,,,,,,,,,,,,2,america,spain,,,,,,,,,,,"[""lshift"",""rshift""]","[1.718600000000606,2.3350000000000364]",0,6,6,34,1,
054,001,2023-10-12_12h40.24.192,exp_g2,2022.2.5,MacIntel,60.0024001,,,,,,,080,l1,f,se,na,audio/080.wav,,l1_f_se_na_080,,,,,,,image/america.png,image/spain.png,,,,,,,,,,,,2,america,spain,,,,,,,,,,,"[""rshift"",""lshift""]","[1.5,2.6171000000003914]",0,7,7,19,1,1
054,001,2023-10-12_12h40.24.192,exp_g2,2022.2.5,MacIntel,60.0024001,,,,,,,016,l1,t,es,na,audio/016.wav,,l1_t_es_na_016,,,,,,,image/america.png,image/spain.png,,,,,,,,,,,,2,america,spain,,,,,,,,,,,"[""lshift"",""rshift""]","[1.6322999999997592,3.08409999999958]",0,8,8,40,1,1
054,001,2023-10-12_12h40.24.192,exp_g2,2022.2.5,MacIntel,60.0024001,,,,,,,083,l1,f,se,na,audio/083.wav,,l1_f_se_na_083,,,,,,,image/america.png,image/spain.png,,,,,,,,,,,,2,america,spain,,,,,,,,,,,"[""rshift"",""lshift"",""rshift""]","[1.4026999999991858,2.0026999999993222,2.570199999999204]",0,9,9,22,1,1
054,001,2023-10-12_12h40.24.192,exp_g2,2022.2.5,MacIntel,60.0024001,,,,,,,066,l1,f,en,na,audio/066.wav,,l1_f_en_na_066,,,,,,,image/america.png,image/spain.png,,,,,,,,,,,,2,america,spain,,,,,,,,,,,"[""lshift""]",[1.6175000000000637],0,10,10,5,1,
054,001,2023-10-12_12h40.24.192,exp_g2,2022.2.5,MacIntel,60.0024001,,,,,,,075,l1,f,en,na,audio/075.wav,,l1_f_en_na_075,,,,,,,image/america.png,image/spain.png,,,,,,,,,,,,2,america,spain,,,,,,,,,,,"[""lshift""]",[1.7336000000007061],0,11,11,14,1,
054,001,2023-10-12_12h40.24.192,exp_g2,2022.2.5,MacIntel,60.0024001,,,,,,,062,l1,f,en,na,audio/062.wav,,l1_f_en_na_062,,,,,,,image/america.png,image/spain.png,,,,,,,,,,,,2,america,spain,,,,,,,,,,,"[""rshift"",""lshift""]","[1.367799999999761,1.7861999999990985]",0,12,12,1,1,
054,001,2023-10-12_12h40.24.192,exp_g2,2022.2.5,MacIntel,60.0024001,,,,,,,069,l1,f,en,na,audio/069.wav,,l1_f_en_na_069,,,,,,,image/america.png,image/spain.png,,,,,,,,,,,,2,america,spain,,,,,,,,,,,"[""lshift""]",[1.6517999999998665],0,13,13,8,1,
054,001,2023-10-12_12h40.24.192,exp_g2,2022.2.5,MacIntel,60.0024001,,,,,,,067,l1,f,en,na,audio/067.wav,,l1_f_en_na_067,,,,,,,image/america.png,image/spain.png,,,,,,,,,,,,2,america,spain,,,,,,,,,,,"[""lshift""]",[1.785099999999602],0,14,14,6,1,
054,001,2023-10-12_12h40.24.192,exp_g2,2022.2.5,MacIntel,60.0024001,,,,,,,019,l1,t,es,na,audio/019.wav,,l1_t_es_na_019,,,,,,,image/america.png,image/spain.png,,,,,,,,,,,,2,america,spain,,,,,,,,,,,"[""lshift"",""rshift""]","[1.4014999999999418,2.7749000000003434]",0,15,15,43,1,1
054,001,2023-10-12_12h40.24.192,exp_g2,2022.2.5,MacIntel,60.0024001,,,,,,,094,l1,f,sp,na,audio/094.wav,,l1_f_sp_na_094,,,,,,,image/america.png,image/spain.png,,,,,,,,,,,,2,america,spain,,,,,,,,,,,"[""rshift""]",[1.8165000000001328],0,16,16,33,1,
054,001,2023-10-12_12h40.24.192,exp_g2,2022.2.5,MacIntel,60.0024001,,,,,,,011,l1,t,es,na,audio/011.wav,,l1_t_es_na_011,,,,,,,image/america.png,image/spain.png,,,,,,,,,,,,2,america,spain,,,,,,,,,,,"[""lshift"",""rshift""]","[1.5690999999997075,2.4685999999996966]",0,17,17,35,1,1
054,001,2023-10-12_12h40.24.192,exp_g2,2022.2.5,MacIntel,60.0024001,,,,,,,084,l1,f,se,na,audio/084.wav,,l1_f_se_na_084,,,,,,,image/america.png,image/spain.png,,,,,,,,,,,,2,america,spain,,,,,,,,,,,"[""rshift"",""lshift""]","[1.4355999999995674,2.7174999999999727]",0,18,18,23,1,1
054,001,2023-10-12_12h40.24.192,exp_g2,2022.2.5,MacIntel,60.0024001,,,,,,,012,l1,t,es,na,audio/012.wav,,l1_t_es_na_012,,,,,,,image/america.png,image/spain.png,,,,,,,,,,,,2,america,spain,,,,,,,,,,,"[""lshift"",""rshift""]","[1.4514000000003762,2.3190000000001874]",0,19,19,36,1,1
054,001,2023-10-12_12h40.24.192,exp_g2,2022.2.5,MacIntel,60.0024001,,,,,,,142,l2,t,es,f0u,audio/142.wav,,l2_t_es_f0u_142,,,,,,,image/america.png,image/spain.png,,,,,,,,,,,,2,america,spain,,,,,,,,,,,"[""lshift"",""rshift""]","[1.6014999999999873,2.1825999999996384]",0,20,20,46,1,1
054,001,2023-10-12_12h40.24.192,exp_g2,2022.2.5,MacIntel,60.0024001,,,,,,,148,l2,t,es,f0u,audio/148.wav,,l2_t_es_f0u_148,,,,,,,image/america.png,image/spain.png,,,,,,,,,,,,2,america,spain,,,,,,,,,,,"[""lshift"",""rshift""]","[1.455199999999195,2.0174999999999272]",0,21,21,52,1,1
054,001,2023-10-12_12h40.24.192,exp_g2,2022.2.5,MacIntel,60.0024001,,,,,,,070,l1,f,en,na,audio/070.wav,,l1_f_en_na_070,,,,,,,image/america.png,image/spain.png,,,,,,,,,,,,2,america,spain,,,,,,,,,,,"[""lshift""]",[1.5002000000001772],0,22,22,9,1,
054,001,2023-10-12_12h40.24.192,exp_g2,2022.2.5,MacIntel,60.0024001,,,,,,,078,l1,f,se,na,audio/078.wav,,l1_f_se_na_078,,,,,,,image/america.png,image/spain.png,,,,,,,,,,,,2,america,spain,,,,,,,,,,,"[""rshift"",""lshift""]","[1.7055999999997766,2.6849000000004253]",0,23,23,17,1,1
054,001,2023-10-12_12h40.24.192,exp_g2,2022.2.5,MacIntel,60.0024001,,,,,,,015,l1,t,es,na,audio/015.wav,,l1_t_es_na_015,,,,,,,image/america.png,image/spain.png,,,,,,,,,,,,2,america,spain,,,,,,,,,,,"[""lshift"",""rshift""]","[1.9175000000000182,2.283800000000838]",0,24,24,39,1,1
054,001,2023-10-12_12h40.24.192,exp_g2,2022.2.5,MacIntel,60.0024001,,,,,,,090,l1,f,sp,na,audio/090.wav,,l1_f_sp_na_090,,,,,,,image/america.png,image/spain.png,,,,,,,,,,,,2,america,spain,,,,,,,,,,,"[""rshift""]",[1.9061999999994441],0,25,25,29,1,
054,001,2023-10-12_12h40.24.192,exp_g2,2022.2.5,MacIntel,60.0024001,,,,,,,018,l1,t,es,na,audio/018.wav,,l1_t_es_na_018,,,,,,,image/america.png,image/spain.png,,,,,,,,,,,,2,america,spain,,,,,,,,,,,"[""lshift"",""rshift""]","[2.486200000000281,2.75200000000018]",0,26,26,42,1,1
054,001,2023-10-12_12h40.24.192,exp_g2,2022.2.5,MacIntel,60.0024001,,,,,,,065,l1,f,en,na,audio/065.wav,,l1_f_en_na_065,,,,,,,image/america.png,image/spain.png,,,,,,,,,,,,2,america,spain,,,,,,,,,,,"[""lshift""]",[1.3729000000002998],0,27,27,4,1,
054,001,2023-10-12_12h40.24.192,exp_g2,2022.2.5,MacIntel,60.0024001,,,,,,,061,l1,f,en,na,audio/061.wav,,l1_f_en_na_061,,,,,,,image/america.png,image/spain.png,,,,,,,,,,,,2,america,spain,,,,,,,,,,,"[""lshift""]",[1.568299999999681],0,28,28,0,1,
054,001,2023-10-12_12h40.24.192,exp_g2,2022.2.5,MacIntel,60.0024001,,,,,,,087,l1,f,sp,na,audio/087.wav,,l1_f_sp_na_087,,,,,,,image/america.png,image/spain.png,,,,,,,,,,,,2,america,spain,,,,,,,,,,,"[""rshift""]",[1.5331000000005588],0,29,29,26,1,
054,001,2023-10-12_12h40.24.192,exp_g2,2022.2.5,MacIntel,60.0024001,,,,,,,077,l1,f,se,na,audio/077.wav,,l1_f_se_na_077,,,,,,,image/america.png,image/spain.png,,,,,,,,,,,,2,america,spain,,,,,,,,,,,"[""rshift"",""lshift""]","[1.785799999999881,2.2183999999995194]",0,30,30,16,1,1
054,001,2023-10-12_12h40.24.192,exp_g2,2022.2.5,MacIntel,60.0024001,,,,,,,014,l1,t,es,na,audio/014.wav,,l1_t_es_na_014,,,,,,,image/america.png,image/spain.png,,,,,,,,,,,,2,america,spain,,,,,,,,,,,"[""lshift"",""rshift""]","[1.70479999999975,2.2339000000004035]",0,31,31,38,1,1
054,001,2023-10-12_12h40.24.192,exp_g2,2022.2.5,MacIntel,60.0024001,,,,,,,145,l2,t,es,f0u,audio/145.wav,,l2_t_es_f0u_145,,,,,,,image/america.png,image/spain.png,,,,,,,,,,,,2,america,spain,,,,,,,,,,,"[""lshift"",""rshift""]","[1.5499000000004344,2.151100000000497]",0,32,32,49,1,1
054,001,2023-10-12_12h40.24.192,exp_g2,2022.2.5,MacIntel,60.0024001,,,,,,,146,l2,t,es,f0u,audio/146.wav,,l2_t_es_f0u_146,,,,,,,image/america.png,image/spain.png,,,,,,,,,,,,2,america,spain,,,,,,,,,,,"[""lshift"",""rshift""]","[2.3089000000002216,2.9344999999998436]",0,33,33,50,1,1
054,001,2023-10-12_12h40.24.192,exp_g2,2022.2.5,MacIntel,60.0024001,,,,,,,063,l1,f,en,na,audio/063.wav,,l1_f_en_na_063,,,,,,,image/america.png,image/spain.png,,,,,,,,,,,,2,america,spain,,,,,,,,,,,"[""lshift""]",[1.6322999999997592],0,34,34,2,1,
054,001,2023-10-12_12h40.24.192,exp_g2,2022.2.5,MacIntel,60.0024001,,,,,,,141,l2,t,es,f0u,audio/141.wav,,l2_t_es_f0u_141,,,,,,,image/america.png,image/spain.png,,,,,,,,,,,,2,america,spain,,,,,,,,,,,"[""lshift"",""rshift""]","[1.5327000000002045,2.0697999999999865]",0,35,35,45,1,1
054,001,2023-10-12_12h40.24.192,exp_g2,2022.2.5,MacIntel,60.0024001,,,,,,,086,l1,f,sp,na,audio/086.wav,,l1_f_sp_na_086,,,,,,,image/america.png,image/spain.png,,,,,,,,,,,,2,america,spain,,,,,,,,,,,"[""rshift""]",[1.4342000000001462],0,36,36,25,1,
054,001,2023-10-12_12h40.24.192,exp_g2,2022.2.5,MacIntel,60.0024001,,,,,,,147,l2,t,es,f0u,audio/147.wav,,l2_t_es_f0u_147,,,,,,,image/america.png,image/spain.png,,,,,,,,,,,,2,america,spain,,,,,,,,,,,"[""lshift"",""rshift""]","[1.8211000000005697,2.316900000000487]",0,37,37,51,1,1
054,001,2023-10-12_12h40.24.192,exp_g2,2022.2.5,MacIntel,60.0024001,,,,,,,081,l1,f,se,na,audio/081.wav,,l1_f_se_na_081,,,,,,,image/america.png,image/spain.png,,,,,,,,,,,,2,america,spain,,,,,,,,,,,"[""rshift"",""lshift""]","[1.57100000000014,2.7492999999999483]",0,38,38,20,1,1
054,001,2023-10-12_12h40.24.192,exp_g2,2022.2.5,MacIntel,60.0024001,,,,,,,092,l1,f,sp,na,audio/092.wav,,l1_f_sp_na_092,,,,,,,image/america.png,image/spain.png,,,,,,,,,,,,2,america,spain,,,,,,,,,,,"[""rshift""]",[1.9002999999997883],0,39,39,31,1,
054,001,2023-10-12_12h40.24.192,exp_g2,2022.2.5,MacIntel,60.0024001,,,,,,,071,l1,f,en,na,audio/071.wav,,l1_f_en_na_071,,,,,,,image/america.png,image/spain.png,,,,,,,,,,,,2,america,spain,,,,,,,,,,,"[""rshift"",""lshift"",""lshift""]","[1.5585000000000946,1.788599999999633,2.4572000000002845]",0,40,40,10,1,
054,001,2023-10-12_12h40.24.192,exp_g2,2022.2.5,MacIntel,60.0024001,,,,,,,149,l2,t,es,f0u,audio/149.wav,,l2_t_es_f0u_149,,,,,,,image/america.png,image/spain.png,,,,,,,,,,,,2,america,spain,,,,,,,,,,,"[""lshift"",""rshift""]","[2.001299999999901,2.8177000000002863]",0,41,41,53,1,1
054,001,2023-10-12_12h40.24.192,exp_g2,2022.2.5,MacIntel,60.0024001,,,,,,,093,l1,f,sp,na,audio/093.wav,,l1_f_sp_na_093,,,,,,,image/america.png,image/spain.png,,,,,,,,,,,,2,america,spain,,,,,,,,,,,"[""rshift""]",[1.6014000000004671],0,42,42,32,1,
054,001,2023-10-12_12h40.24.192,exp_g2,2022.2.5,MacIntel,60.0024001,,,,,,,079,l1,f,se,na,audio/079.wav,,l1_f_se_na_079,,,,,,,image/america.png,image/spain.png,,,,,,,,,,,,2,america,spain,,,,,,,,,,,"[""rshift""]",[2.433999999999969],0,43,43,18,1,1
054,001,2023-10-12_12h40.24.192,exp_g2,2022.2.5,MacIntel,60.0024001,,,,,,,144,l2,t,es,f0u,audio/144.wav,,l2_t_es_f0u_144,,,,,,,image/america.png,image/spain.png,,,,,,,,,,,,2,america,spain,,,,,,,,,,,"[""lshift"",""rshift""]","[2.407799999999952,2.699000000000069]",0,44,44,48,1,1
054,001,2023-10-12_12h40.24.192,exp_g2,2022.2.5,MacIntel,60.0024001,,,,,,,150,l2,t,es,f0u,audio/150.wav,,l2_t_es_f0u_150,,,,,,,image/america.png,image/spain.png,,,,,,,,,,,,2,america,spain,,,,,,,,,,,"[""lshift"",""rshift""]","[1.4351000000006024,2.287600000000566]",0,45,45,54,1,1
054,001,2023-10-12_12h40.24.192,exp_g2,2022.2.5,MacIntel,60.0024001,,,,,,,072,l1,f,en,na,audio/072.wav,,l1_f_en_na_072,,,,,,,image/america.png,image/spain.png,,,,,,,,,,,,2,america,spain,,,,,,,,,,,"[""lshift""]",[1.7497999999998228],0,46,46,11,1,
054,001,2023-10-12_12h40.24.192,exp_g2,2022.2.5,MacIntel,60.0024001,,,,,,,076,l1,f,se,na,audio/076.wav,,l1_f_se_na_076,,,,,,,image/america.png,image/spain.png,,,,,,,,,,,,2,america,spain,,,,,,,,,,,"[""rshift""]",[2.311000000000149],0,47,47,15,1,1
054,001,2023-10-12_12h40.24.192,exp_g2,2022.2.5,MacIntel,60.0024001,,,,,,,068,l1,f,en,na,audio/068.wav,,l1_f_en_na_068,,,,,,,image/america.png,image/spain.png,,,,,,,,,,,,2,america,spain,,,,,,,,,,,"[""lshift""]",[2.305899999999383],0,48,48,7,1,
054,001,2023-10-12_12h40.24.192,exp_g2,2022.2.5,MacIntel,60.0024001,,,,,,,082,l1,f,se,na,audio/082.wav,,l1_f_se_na_082,,,,,,,image/america.png,image/spain.png,,,,,,,,,,,,2,america,spain,,,,,,,,,,,"[""rshift""]",[1.5170000000000528],0,49,49,21,1,1
054,001,2023-10-12_12h40.24.192,exp_g2,2022.2.5,MacIntel,60.0024001,,,,,,,020,l1,t,es,na,audio/020.wav,,l1_t_es_na_020,,,,,,,image/america.png,image/spain.png,,,,,,,,,,,,2,america,spain,,,,,,,,,,,"[""lshift""]",[1.5718999999994594],0,50,50,44,1,1
054,001,2023-10-12_12h40.24.192,exp_g2,2022.2.5,MacIntel,60.0024001,,,,,,,091,l1,f,sp,na,audio/091.wav,,l1_f_sp_na_091,,,,,,,image/america.png,image/spain.png,,,,,,,,,,,,2,america,spain,,,,,,,,,,,"[""rshift""]",[2.48279999999977],0,51,51,30,1,
054,001,2023-10-12_12h40.24.192,exp_g2,2022.2.5,MacIntel,60.0024001,,,,,,,064,l1,f,en,na,audio/064.wav,,l1_f_en_na_064,,,,,,,image/america.png,image/spain.png,,,,,,,,,,,,2,america,spain,,,,,,,,,,,"[""lshift""]",[2.23490000000038],0,52,52,3,1,
054,001,2023-10-12_12h40.24.192,exp_g2,2022.2.5,MacIntel,60.0024001,,,,,,,017,l1,t,es,na,audio/017.wav,,l1_t_es_na_017,,,,,,,image/america.png,image/spain.png,,,,,,,,,,,,2,america,spain,,,,,,,,,,,"[""lshift"",""rshift""]","[1.8836000000005697,2.6491000000005442]",0,53,53,41,1,1
054,001,2023-10-12_12h40.24.192,exp_g2,2022.2.5,MacIntel,60.0024001,,,,,,,143,l2,t,es,f0u,audio/143.wav,,l2_t_es_f0u_143,,,,,,,image/america.png,image/spain.png,,,,,,,,,,,,2,america,spain,,,,,,,,,,,"[""lshift"",""rshift""]","[2.0342000000002827,2.93320000000017]",0,54,54,47,1,1
054,001,2023-10-12_12h40.24.192,exp_g2,2022.2.5,MacIntel,60.0024001,,,,,,,,,,,,,,,,,,,,,,,,,,,,,,,,,,,,,,,,,,,,,,,,,,,,,,
