participant,session,date,expName,psychopyVersion,OS,frameRate,exp1_trial_key.keys,exp1_trial_loop.thisRepN,exp1_trial_loop.thisTrialN,exp1_trial_loop.thisN,exp1_trial_loop.thisIndex,exp1_trial_loop.ran,num,list,cond,lang,type,sound_dir,phr,sent_code,mat,mat_num,emb_num,emb,cut,mat_f0_c,left,right,correct_img,correct_key,exp1_trial_key.rt,exp1_key.keys,exp1_key.corr,exp1_key.rt,exp1_loop.thisRepN,exp1_loop.thisTrialN,exp1_loop.thisN,exp1_loop.thisIndex,exp1_loop.ran,exp_num,image,image_alt,left_img,right_img,image_dir,exp2_trial_key.keys,exp2_trial_key.rt,exp2_trial_loop.thisRepN,exp2_trial_loop.thisTrialN,exp2_trial_loop.thisN,exp2_trial_loop.thisIndex,exp2_trial_loop.ran,exp2_key.keys,exp2_key.rt,exp2_loop.thisRepN,exp2_loop.thisTrialN,exp2_loop.thisN,exp2_loop.thisIndex,exp2_loop.ran,cs
648903,001,2023-11-16_11h11.01.336,exp_g2,2022.2.5,MacIntel,60.0024001,,,,,,,,,,,,,,,,,,,,,,,,,,,,,,,,,,,,,,,,,,,,,,,,,,,,,,
648903,001,2023-11-16_11h11.01.336,exp_g2,2022.2.5,MacIntel,60.0024001,,0,0,0,0,1,tr1,lt,tr,en,na,practice_trial/audio/tr1.wav,Where are your kids?,lt_tr_en_na_tr1,-,-,-,-,-,-,image/kids.png,image/plates.png,kids,lshift,,,,,,,,,,,,,,,,,,,,,,,,,,,,,,
648903,001,2023-11-16_11h11.01.336,exp_g2,2022.2.5,MacIntel,60.0024001,"[""rshift""]",0,1,1,1,1,tr2,lt,tr,en,na,practice_trial/audio/tr2.wav,Who is buying my car?,lt_tr_en_na_tr2,-,-,-,-,-,-,image/bag.png,image/car.png,car,rshift,[2.859000000000009],,,,,,,,,,,,,,,,,,,,,,,,,,,,,
648903,001,2023-11-16_11h11.01.336,exp_g2,2022.2.5,MacIntel,60.0024001,"[""lshift""]",0,2,2,2,1,tr3,lt,tr,sp,na,practice_trial/audio/tr3.wav,¿Dónde está mi perro?,lt_tr_sp_na_tr3,-,-,-,-,-,-,image/dog.png,image/grandma.png,dog,lshift,[2.118599999964246],,,,,,,,,,,,,,,,,,,,,,,,,,,,,
648903,001,2023-11-16_11h11.01.336,exp_g2,2022.2.5,MacIntel,60.0024001,"[""lshift""]",0,3,3,3,1,tr4,lt,tr,sp,na,practice_trial/audio/tr4.wav,¿De quién es la bolsa?,lt_tr_sp_na_tr4,-,-,-,-,-,-,image/shirt.png,image/bag.png,bag,rshift,[3.218899999976145],,,,,,,,,,,,,,,,,,,,,,,,,,,,,
648903,001,2023-11-16_11h11.01.336,exp_g2,2022.2.5,MacIntel,60.0024001,"[""lshift""]",0,4,4,4,1,tr5,lt,tr,se,na,practice_trial/audio/tr5.wav,¿Dónde encontraste sus donuts?,lt_tr_se_na_tr5,-,-,-,-,-,-,image/donut.png,image/cups.png,donut,lshift,[3.0967999999523244],,,,,,,,,,,,,,,,,,,,,,,,,,,,,
648903,001,2023-11-16_11h11.01.336,exp_g2,2022.2.5,MacIntel,60.0024001,"[""rshift""]",0,5,5,5,1,tr6,lt,tr,se,na,practice_trial/audio/tr6.wav,¿Cuándo compraste tu sweater?,lt_tr_se_na_tr6,-,-,-,-,-,-,image/chair.png,image/sweater.png,sweater,rshift,[2.5568000000119184],,,,,,,,,,,,,,,,,,,,,,,,,,,,,
648903,001,2023-11-16_11h11.01.336,exp_g2,2022.2.5,MacIntel,60.0024001,"[""lshift""]",0,6,6,6,1,tr7,lt,tr,es,na,practice_trial/audio/tr7.wav,Why do you have my camisa?,lt_tr_es_na_tr7,-,-,-,-,-,-,image/shirt.png,image/wallet.png,shirt,lshift,[2.2750000000000057],,,,,,,,,,,,,,,,,,,,,,,,,,,,,
648903,001,2023-11-16_11h11.01.336,exp_g2,2022.2.5,MacIntel,60.0024001,"[""rshift""]",0,7,7,7,1,tr8,lt,tr,es,na,practice_trial/audio/tr8.wav,Where did you find his chanclas?,lt_tr_es_na_tr8,-,-,-,-,-,-,image/key.png,image/flipflops.png,flipflops,rshift,[2.3420999999642333],,,,,,,,,,,,,,,,,,,,,,,,,,,,,
648903,001,2023-11-16_11h11.01.336,exp_g2,2022.2.5,MacIntel,60.0024001,,,,,,,,,,,,,,,,,,,,,,,,,,,,,,,,,,,,,,,,,,,,,,,,,,,,,,
648903,001,2023-11-16_11h11.01.336,exp_g2,2022.2.5,MacIntel,60.0024001,,,,,,,115,l2,f,se,na,audio/115.wav,,l2_f_se_na_115,,,,,,,image/notebook.png,image/cellphone.png,notebook,lshift,,lshift,1,2.607,0,0,0,19,1,1,notebook,cellphone,notebook,cellphone,,,,,,,,,,,,,,,,
648903,001,2023-11-16_11h11.01.336,exp_g2,2022.2.5,MacIntel,60.0024001,,,,,,,101,l2,f,en,na,audio/101.wav,,l2_f_en_na_101,,,,,,,image/computer.png,image/bag.png,computer,lshift,,lshift,1,2.4624,0,1,1,5,1,1,computer,bag,computer,bag,,,,,,,,,,,,,,,,
648903,001,2023-11-16_11h11.01.336,exp_g2,2022.2.5,MacIntel,60.0024001,,,,,,,103,l2,f,en,na,audio/103.wav,,l2_f_en_na_103,,,,,,,image/toys.png,image/sneakers.png,toys,lshift,,lshift,1,2.2118,0,2,2,7,1,1,toys,sneakers,toys,sneakers,,,,,,,,,,,,,,,,
648903,001,2023-11-16_11h11.01.336,exp_g2,2022.2.5,MacIntel,60.0024001,,,,,,,109,l2,f,en,na,audio/109.wav,,l2_f_en_na_109,,,,,,,image/fish.png,image/woman.png,fish,lshift,,lshift,1,2.0421,0,3,3,13,1,1,fish,woman,fish,woman,,,,,,,,,,,,,,,,
648903,001,2023-11-16_11h11.01.336,exp_g2,2022.2.5,MacIntel,60.0024001,,,,,,,117,l2,f,se,na,audio/117.wav,,l2_f_se_na_117,,,,,,,image/spongebob.png,image/mickeymouse.png,spongebob,lshift,,lshift,1,2.1579,0,4,4,21,1,1,spongebob,mickeymouse,spongebob,mickeymouse,,,,,,,,,,,,,,,,
648903,001,2023-11-16_11h11.01.336,exp_g2,2022.2.5,MacIntel,60.0024001,,,,,,,026,l2,t,es,na,audio/026.wav,,l2_t_es_na_026,,,,,,,image/village.png,image/grandma.png,grandma,rshift,,rshift,1,2.3069,0,5,5,40,1,1,grandma,village,village,grandma,,,,,,,,,,,,,,,,
648903,001,2023-11-16_11h11.01.336,exp_g2,2022.2.5,MacIntel,60.0024001,,,,,,,151,l1,t,es,f0c,audio/151.wav,,l1_t_es_f0c_151,,,,,,,image/cat.png,image/flower.png,cat,lshift,,lshift,1,2.1745,0,6,6,45,1,1,cat,flower,cat,flower,,,,,,,,,,,,,,,,
648903,001,2023-11-16_11h11.01.336,exp_g2,2022.2.5,MacIntel,60.0024001,,,,,,,125,l2,f,sp,na,audio/125.wav,,l2_f_sp_na_125,,,,,,,image/desk.png,image/bottle.png,desk,lshift,,rshift,0,4.5926,0,7,7,29,1,1,desk,bottle,desk,bottle,,,,,,,,,,,,,,,,
648903,001,2023-11-16_11h11.01.336,exp_g2,2022.2.5,MacIntel,60.0024001,,,,,,,113,l2,f,se,na,audio/113.wav,,l2_f_se_na_113,,,,,,,image/loafers.png,image/sneakers.png,loafers,lshift,,lshift,1,2.4578,0,8,8,17,1,1,loafers,sneakers,loafers,sneakers,,,,,,,,,,,,,,,,
648903,001,2023-11-16_11h11.01.336,exp_g2,2022.2.5,MacIntel,60.0024001,,,,,,,156,l1,t,es,f0c,audio/156.wav,,l1_t_es_f0c_156,,,,,,,image/city.png,image/village.png,village,rshift,,,0,,0,9,9,50,1,1,village,city,city,village,,,,,,,,,,,,,,,,
648903,001,2023-11-16_11h11.01.336,exp_g2,2022.2.5,MacIntel,60.0024001,,,,,,,021,l2,t,es,na,audio/021.wav,,l2_t_es_na_021,,,,,,,image/jacket.png,image/flipflops.png,jacket,lshift,,lshift,1,2.5458,0,10,10,35,1,1,jacket,flipflops,jacket,flipflops,,,,,,,,,,,,,,,,
648903,001,2023-11-16_11h11.01.336,exp_g2,2022.2.5,MacIntel,60.0024001,,,,,,,128,l2,f,sp,na,audio/128.wav,,l2_f_sp_na_128,,,,,,,image/cups.png,image/kids.png,kids,rshift,,rshift,1,2.6749,0,11,11,32,1,1,kids,cups,cups,kids,,,,,,,,,,,,,,,,
648903,001,2023-11-16_11h11.01.336,exp_g2,2022.2.5,MacIntel,60.0024001,,,,,,,159,l1,t,es,f0c,audio/159.wav,,l1_t_es_f0c_159,,,,,,,image/restaurant.png,image/hotel.png,restaurant,lshift,,lshift,1,2.6397,0,12,12,53,1,1,restaurant,hotel,restaurant,hotel,,,,,,,,,,,,,,,,
648903,001,2023-11-16_11h11.01.336,exp_g2,2022.2.5,MacIntel,60.0024001,,,,,,,120,l2,f,se,na,audio/120.wav,,l2_f_se_na_120,,,,,,,image/glasses.png,image/joycons.png,joycons,rshift,,rshift,1,2.5257,0,13,13,24,1,1,joycons,glasses,glasses,joycons,,,,,,,,,,,,,,,,
648903,001,2023-11-16_11h11.01.336,exp_g2,2022.2.5,MacIntel,60.0024001,,,,,,,126,l2,f,sp,na,audio/126.wav,,l2_f_sp_na_126,,,,,,,image/backpack.png,image/key.png,key,rshift,,lshift,0,2.4242,0,14,14,30,1,1,key,backpack,backpack,key,,,,,,,,,,,,,,,,
648903,001,2023-11-16_11h11.01.336,exp_g2,2022.2.5,MacIntel,60.0024001,,,,,,,099,l2,f,en,na,audio/099.wav,,l2_f_en_na_099,,,,,,,image/dog.png,image/cat.png,dog,lshift,,lshift,1,1.8068,0,15,15,3,1,1,dog,cat,dog,cat,,,,,,,,,,,,,,,,
648903,001,2023-11-16_11h11.01.336,exp_g2,2022.2.5,MacIntel,60.0024001,,,,,,,119,l2,f,se,na,audio/119.wav,,l2_f_se_na_119,,,,,,,image/penthouse.png,image/rocket.png,penthouse,lshift,,lshift,1,2.6148,0,16,16,23,1,1,penthouse,rocket,penthouse,rocket,,,,,,,,,,,,,,,,
648903,001,2023-11-16_11h11.01.336,exp_g2,2022.2.5,MacIntel,60.0024001,,,,,,,116,l2,f,se,na,audio/116.wav,,l2_f_se_na_116,,,,,,,image/sweatpants.png,image/boxers.png,boxers,rshift,,rshift,1,2.3806,0,17,17,20,1,1,boxers,sweatpants,sweatpants,boxers,,,,,,,,,,,,,,,,
648903,001,2023-11-16_11h11.01.336,exp_g2,2022.2.5,MacIntel,60.0024001,,,,,,,029,l2,t,es,na,audio/029.wav,,l2_t_es_na_029,,,,,,,image/armchair.png,image/ring.png,armchair,lshift,,rshift,0,2.6732,0,18,18,43,1,1,armchair,ring,armchair,ring,,,,,,,,,,,,,,,,
648903,001,2023-11-16_11h11.01.336,exp_g2,2022.2.5,MacIntel,60.0024001,,,,,,,129,l2,f,sp,na,audio/129.wav,,l2_f_sp_na_129,,,,,,,image/bag.png,image/chair.png,bag,lshift,,rshift,0,3.6291,0,19,19,33,1,1,bag,chair,bag,chair,,,,,,,,,,,,,,,,
648903,001,2023-11-16_11h11.01.336,exp_g2,2022.2.5,MacIntel,60.0024001,,,,,,,153,l1,t,es,f0c,audio/153.wav,,l1_t_es_f0c_153,,,,,,,image/cellphone.png,image/book.png,cellphone,lshift,,lshift,1,2.4563,0,20,20,47,1,1,cellphone,book,cellphone,book,,,,,,,,,,,,,,,,
648903,001,2023-11-16_11h11.01.336,exp_g2,2022.2.5,MacIntel,60.0024001,,,,,,,155,l1,t,es,f0c,audio/155.wav,,l1_t_es_f0c_155,,,,,,,image/flipflops.png,image/flower.png,flipflops,lshift,,lshift,1,2.2284,0,21,21,49,1,1,flipflops,flower,flipflops,flower,,,,,,,,,,,,,,,,
648903,001,2023-11-16_11h11.01.336,exp_g2,2022.2.5,MacIntel,60.0024001,,,,,,,111,l2,f,se,na,audio/111.wav,,l2_f_se_na_111,,,,,,,image/mashedpotatoes.png,image/donut.png,mashedpotatoes,lshift,,lshift,1,2.4331,0,22,22,15,1,1,mashedpotatoes,donut,mashedpotatoes,donut,,,,,,,,,,,,,,,,
648903,001,2023-11-16_11h11.01.336,exp_g2,2022.2.5,MacIntel,60.0024001,,,,,,,112,l2,f,se,na,audio/112.wav,,l2_f_se_na_112,,,,,,,image/burger.png,image/hotdog.png,hotdog,rshift,,rshift,1,2.2064,0,23,23,16,1,1,hotdog,burger,burger,hotdog,,,,,,,,,,,,,,,,
648903,001,2023-11-16_11h11.01.336,exp_g2,2022.2.5,MacIntel,60.0024001,,,,,,,025,l2,t,es,na,audio/025.wav,,l2_t_es_na_025,,,,,,,image/cellphone.png,image/truck.png,cellphone,lshift,,rshift,0,2.6098,0,24,24,39,1,1,cellphone,truck,cellphone,truck,,,,,,,,,,,,,,,,
648903,001,2023-11-16_11h11.01.336,exp_g2,2022.2.5,MacIntel,60.0024001,,,,,,,121,l2,f,sp,na,audio/121.wav,,l2_f_sp_na_121,,,,,,,image/shoe.png,image/glasses.png,shoe,lshift,,lshift,1,2.4962,0,25,25,25,1,1,shoe,glasses,shoe,glasses,,,,,,,,,,,,,,,,
648903,001,2023-11-16_11h11.01.336,exp_g2,2022.2.5,MacIntel,60.0024001,,,,,,,102,l2,f,en,na,audio/102.wav,,l2_f_en_na_102,,,,,,,image/socks.png,image/book.png,books,rshift,,rshift,1,2.5086,0,26,26,6,1,1,books,socks,socks,book,,,,,,,,,,,,,,,,
648903,001,2023-11-16_11h11.01.336,exp_g2,2022.2.5,MacIntel,60.0024001,,,,,,,118,l2,f,se,na,audio/118.wav,,l2_f_se_na_118,,,,,,,image/icecream.png,image/donut.png,donut,rshift,,rshift,1,2.0971,0,27,27,22,1,1,donut,icecream,icecream,donut,,,,,,,,,,,,,,,,
648903,001,2023-11-16_11h11.01.336,exp_g2,2022.2.5,MacIntel,60.0024001,,,,,,,107,l2,f,en,na,audio/107.wav,,l2_f_en_na_107,,,,,,,image/man.png,image/cat.png,man,lshift,,lshift,1,2.0126,0,28,28,11,1,1,man,cat,man,cat,,,,,,,,,,,,,,,,
648903,001,2023-11-16_11h11.01.336,exp_g2,2022.2.5,MacIntel,60.0024001,,,,,,,114,l2,f,se,na,audio/114.wav,,l2_f_se_na_114,,,,,,,image/jeans.png,image/sweatpants.png,sweatpants,rshift,,lshift,0,2.614,0,29,29,18,1,1,sweatpants,jeans,jeans,sweatpants,,,,,,,,,,,,,,,,
648903,001,2023-11-16_11h11.01.336,exp_g2,2022.2.5,MacIntel,60.0024001,,,,,,,152,l1,t,es,f0c,audio/152.wav,,l1_t_es_f0c_152,,,,,,,image/car.png,image/grandma.png,grandma,rshift,,rshift,1,2.2763,0,30,30,46,1,1,grandma,car,car,grandma,,,,,,,,,,,,,,,,
648903,001,2023-11-16_11h11.01.336,exp_g2,2022.2.5,MacIntel,60.0024001,,,,,,,158,l1,t,es,f0c,audio/158.wav,,l1_t_es_f0c_158,,,,,,,image/pants.png,image/shirt.png,shirt,rshift,,rshift,1,2.4279,0,31,31,52,1,1,shirt,pants,pants,shirt,,,,,,,,,,,,,,,,
648903,001,2023-11-16_11h11.01.336,exp_g2,2022.2.5,MacIntel,60.0024001,,,,,,,108,l2,f,en,na,audio/108.wav,,l2_f_en_na_108,,,,,,,image/scarf.png,image/socks.png,socks,rshift,,rshift,1,2.6101,0,32,32,12,1,1,socks,scarf,scarf,socks,,,,,,,,,,,,,,,,
648903,001,2023-11-16_11h11.01.336,exp_g2,2022.2.5,MacIntel,60.0024001,,,,,,,100,l2,f,en,na,audio/100.wav,,l2_f_en_na_100,,,,,,,image/wallet.png,image/scarf.png,scarf,rshift,,rshift,1,1.8663,0,33,33,4,1,1,scarf,wallet,wallet,scarf,,,,,,,,,,,,,,,,
648903,001,2023-11-16_11h11.01.336,exp_g2,2022.2.5,MacIntel,60.0024001,,,,,,,104,l2,f,en,na,audio/104.wav,,l2_f_en_na_104,,,,,,,image/shirt.png,image/bag.png,bag,rshift,,rshift,1,1.7831,0,34,34,8,1,1,bag,shirt,shirt,bag,,,,,,,,,,,,,,,,
648903,001,2023-11-16_11h11.01.336,exp_g2,2022.2.5,MacIntel,60.0024001,,,,,,,028,l2,t,es,na,audio/028.wav,,l2_t_es_na_028,,,,,,,image/pants.png,image/glasses.png,glasses,rshift,,rshift,1,3.0101,0,35,35,42,1,1,glasses,pants,pants,glasses,,,,,,,,,,,,,,,,
648903,001,2023-11-16_11h11.01.336,exp_g2,2022.2.5,MacIntel,60.0024001,,,,,,,106,l2,f,en,na,audio/106.wav,,l2_f_en_na_106,,,,,,,image/wallet.png,image/computer.png,computer,rshift,,rshift,1,2.7429,0,36,36,10,1,1,computer,wallet,wallet,computer,,,,,,,,,,,,,,,,
648903,001,2023-11-16_11h11.01.336,exp_g2,2022.2.5,MacIntel,60.0024001,,,,,,,157,l1,t,es,f0c,audio/157.wav,,l1_t_es_f0c_157,,,,,,,image/jacket.png,image/shirt.png,jacket,lshift,,lshift,1,2.1202,0,37,37,51,1,1,jacket,shirt,jacket,shirt,,,,,,,,,,,,,,,,
648903,001,2023-11-16_11h11.01.336,exp_g2,2022.2.5,MacIntel,60.0024001,,,,,,,124,l2,f,sp,na,audio/124.wav,,l2_f_sp_na_124,,,,,,,image/bag.png,image/bed.png,bed,rshift,,rshift,1,2.2503,0,38,38,28,1,1,bed,bag,bag,bed,,,,,,,,,,,,,,,,
648903,001,2023-11-16_11h11.01.336,exp_g2,2022.2.5,MacIntel,60.0024001,,,,,,,154,l1,t,es,f0c,audio/154.wav,,l1_t_es_f0c_154,,,,,,,image/basket.png,image/truck.png,truck,rshift,,lshift,0,2.9861,0,39,39,48,1,1,truck,basket,basket,truck,,,,,,,,,,,,,,,,
648903,001,2023-11-16_11h11.01.336,exp_g2,2022.2.5,MacIntel,60.0024001,,,,,,,110,l2,f,en,na,audio/110.wav,,l2_f_en_na_110,,,,,,,image/dog.png,image/cat.png,cat,rshift,,rshift,1,2.2648,0,40,40,14,1,1,cat,dog,dog,cat,,,,,,,,,,,,,,,,
648903,001,2023-11-16_11h11.01.336,exp_g2,2022.2.5,MacIntel,60.0024001,,,,,,,122,l2,f,sp,na,audio/122.wav,,l2_f_sp_na_122,,,,,,,image/desk.png,image/chair.png,chair,rshift,,rshift,1,2.5271,0,41,41,26,1,1,chair,desk,desk,chair,,,,,,,,,,,,,,,,
648903,001,2023-11-16_11h11.01.336,exp_g2,2022.2.5,MacIntel,60.0024001,,,,,,,098,l2,f,en,na,audio/098.wav,,l2_f_en_na_098,,,,,,,image/man.png,image/woman.png,woman,rshift,,rshift,1,2.0228,0,42,42,2,1,1,woman,man,man,woman,,,,,,,,,,,,,,,,
648903,001,2023-11-16_11h11.01.336,exp_g2,2022.2.5,MacIntel,60.0024001,,,,,,,022,l2,t,es,na,audio/022.wav,,l2_t_es_na_022,,,,,,,image/dog.png,image/cat.png,cat,rshift,,rshift,1,2.353,0,43,43,36,1,1,cat,dog,dog,cat,,,,,,,,,,,,,,,,
648903,001,2023-11-16_11h11.01.336,exp_g2,2022.2.5,MacIntel,60.0024001,,,,,,,160,l1,t,es,f0c,audio/160.wav,,l1_t_es_f0c_160,,,,,,,image/ring.png,image/bracelet.png,bracelet,rshift,,rshift,1,3.0168,0,44,44,54,1,1,bracelet,ring,ring,bracelet,,,,,,,,,,,,,,,,
648903,001,2023-11-16_11h11.01.336,exp_g2,2022.2.5,MacIntel,60.0024001,,,,,,,030,l2,t,es,na,audio/030.wav,,l2_t_es_na_030,,,,,,,image/flipflops.png,image/boy.png,boy,rshift,,rshift,1,2.6326,0,45,45,44,1,1,boy,flipflops,flipflops,boy,,,,,,,,,,,,,,,,
648903,001,2023-11-16_11h11.01.336,exp_g2,2022.2.5,MacIntel,60.0024001,,,,,,,024,l2,t,es,na,audio/024.wav,,l2_t_es_na_024,,,,,,,image/bed.png,image/jug.png,jug,rshift,,rshift,1,2.9391,0,46,46,38,1,1,jug,bed,bed,jug,,,,,,,,,,,,,,,,
648903,001,2023-11-16_11h11.01.336,exp_g2,2022.2.5,MacIntel,60.0024001,,,,,,,105,l2,f,en,na,audio/105.wav,,l2_f_en_na_105,,,,,,,image/bed.png,image/plane.png,bed,lshift,,lshift,1,2.4205,0,47,47,9,1,1,bed,plane,bed,plane,,,,,,,,,,,,,,,,
648903,001,2023-11-16_11h11.01.336,exp_g2,2022.2.5,MacIntel,60.0024001,,,,,,,127,l2,f,sp,na,audio/127.wav,,l2_f_sp_na_127,,,,,,,image/cat.png,image/dog.png,cat,lshift,,rshift,0,2.9477,0,48,48,31,1,1,cat,dog,cat,dog,,,,,,,,,,,,,,,,
648903,001,2023-11-16_11h11.01.336,exp_g2,2022.2.5,MacIntel,60.0024001,,,,,,,096,l2,f,en,na,audio/096.wav,,l2_f_en_na_096,,,,,,,image/woman.png,image/cat.png,cat,rshift,,rshift,1,1.8355,0,49,49,0,1,1,cat,woman,woman,cat,../image/,,,,,,,,,,,,,,,
648903,001,2023-11-16_11h11.01.336,exp_g2,2022.2.5,MacIntel,60.0024001,,,,,,,123,l2,f,sp,na,audio/123.wav,,l2_f_sp_na_123,,,,,,,image/sweater.png,image/cellphone.png,sweater,lshift,,lshift,1,1.911,0,50,50,27,1,1,sweater,cellphone,sweater,cellphone,,,,,,,,,,,,,,,,
648903,001,2023-11-16_11h11.01.336,exp_g2,2022.2.5,MacIntel,60.0024001,,,,,,,130,l2,f,sp,na,audio/130.wav,,l2_f_sp_na_130,,,,,,,image/socks.png,image/glasses.png,glasses,rshift,,rshift,1,2.1501,0,51,51,34,1,1,glasses,socks,socks,glasses,,,,,,,,,,,,,,,,
648903,001,2023-11-16_11h11.01.336,exp_g2,2022.2.5,MacIntel,60.0024001,,,,,,,027,l2,t,es,na,audio/027.wav,,l2_t_es_na_027,,,,,,,image/shirt.png,image/book.png,shirt,lshift,,lshift,1,2.0148,0,52,52,41,1,1,shirt,book,shirt,book,,,,,,,,,,,,,,,,
648903,001,2023-11-16_11h11.01.336,exp_g2,2022.2.5,MacIntel,60.0024001,,,,,,,097,l2,f,en,na,audio/097.wav,,l2_f_en_na_097,,,,,,,image/ring.png,image/belt.png,ring,lshift,,lshift,1,1.9947,0,53,53,1,1,1,ring,belt,ring,belt,,,,,,,,,,,,,,,,
648903,001,2023-11-16_11h11.01.336,exp_g2,2022.2.5,MacIntel,60.0024001,,,,,,,023,l2,t,es,na,audio/023.wav,,l2_t_es_na_023,,,,,,,image/wine.png,image/cellphone.png,wine,lshift,,rshift,0,2.2673,0,54,54,37,1,1,wine,cellphone,wine,cellphone,,,,,,,,,,,,,,,,
648903,001,2023-11-16_11h11.01.336,exp_g2,2022.2.5,MacIntel,60.0024001,,,,,,,,,,,,,,,,,,,,,,,,,,,,,,,,,,,,,,,,,,,,,,,,,,,,,,
648903,001,2023-11-16_11h11.01.336,exp_g2,2022.2.5,MacIntel,60.0024001,,,,,,,tr1,lt,tr,en,na,practice_trial/audio/tr1.wav,Where are your kids?,lt_tr_en_na_tr1,-,-,-,-,-,-,image/america.png,image/spain.png,,,,,,,,,,,,,,,,,,"[""lshift"",""lshift""]","[2.026700000047697,4.480800000011925]",0,0,0,0,1,,,,,,,,
648903,001,2023-11-16_11h11.01.336,exp_g2,2022.2.5,MacIntel,60.0024001,,,,,,,tr2,lt,tr,en,na,practice_trial/audio/tr2.wav,Who is buying my car?,lt_tr_en_na_tr2,-,-,-,-,-,-,image/america.png,image/spain.png,,,,,,,,,,,,,,,,,,"[""lshift""]",[2.3834999999999695],0,1,1,1,1,,,,,,,,
648903,001,2023-11-16_11h11.01.336,exp_g2,2022.2.5,MacIntel,60.0024001,,,,,,,tr3,lt,tr,sp,na,practice_trial/audio/tr3.wav,¿Dónde está mi perro?,lt_tr_sp_na_tr3,-,-,-,-,-,-,image/america.png,image/spain.png,,,,,,,,,,,,,,,,,,"[""rshift""]",[2.4848999999761645],0,2,2,2,1,,,,,,,,
648903,001,2023-11-16_11h11.01.336,exp_g2,2022.2.5,MacIntel,60.0024001,,,,,,,tr4,lt,tr,sp,na,practice_trial/audio/tr4.wav,¿De quién es la bolsa?,lt_tr_sp_na_tr4,-,-,-,-,-,-,image/america.png,image/spain.png,,,,,,,,,,,,,,,,,,"[""rshift""]",[2.402600000023881],0,3,3,3,1,,,,,,,,
648903,001,2023-11-16_11h11.01.336,exp_g2,2022.2.5,MacIntel,60.0024001,,,,,,,tr5,lt,tr,se,na,practice_trial/audio/tr5.wav,¿Dónde encontraste sus donuts?,lt_tr_se_na_tr5,-,-,-,-,-,-,image/america.png,image/spain.png,,,,,,,,,,,,,,,,,,"[""lshift"",""rshift"",""lshift""]","[2.8846999999880722,4.567899999976191,4.834699999988118]",0,4,4,4,1,,,,,,,,
648903,001,2023-11-16_11h11.01.336,exp_g2,2022.2.5,MacIntel,60.0024001,,,,,,,tr6,lt,tr,se,na,practice_trial/audio/tr6.wav,¿Cuándo compraste tu sweater?,lt_tr_se_na_tr6,-,-,-,-,-,-,image/america.png,image/spain.png,,,,,,,,,,,,,,,,,,"[""rshift"",""lshift"",""rshift""]","[2.084300000011922,2.6498000000119077,3.934900000035725]",0,5,5,5,1,,,,,,,,
648903,001,2023-11-16_11h11.01.336,exp_g2,2022.2.5,MacIntel,60.0024001,,,,,,,tr7,lt,tr,es,na,practice_trial/audio/tr7.wav,Why do you have my camisa?,lt_tr_es_na_tr7,-,-,-,-,-,-,image/america.png,image/spain.png,,,,,,,,,,,,,,,,,,"[""lshift"",""rshift""]","[1.7216999999881182,2.175699999988126]",0,6,6,6,1,,,,,,,,
648903,001,2023-11-16_11h11.01.336,exp_g2,2022.2.5,MacIntel,60.0024001,,,,,,,tr8,lt,tr,es,na,practice_trial/audio/tr8.wav,Where did you find his chanclas?,lt_tr_es_na_tr8,-,-,-,-,-,-,image/america.png,image/spain.png,,,,,,,,,,,,,,,,,,"[""lshift"",""rshift""]","[1.6363000000119428,2.0174000000357637]",0,7,7,7,1,,,,,,,,
648903,001,2023-11-16_11h11.01.336,exp_g2,2022.2.5,MacIntel,60.0024001,,,,,,,,,,,,,,,,,,,,,,,,,,,,,,,,,,,,,,,,,,,,,,,,,,,,,,
648903,001,2023-11-16_11h11.01.336,exp_g2,2022.2.5,MacIntel,60.0024001,,,,,,,083,l1,f,se,na,audio/083.wav,,l1_f_se_na_083,,,,,,,image/america.png,image/spain.png,,,,,,,,,,,,2,america,spain,,,,,,,,,,,"[""rshift"",""lshift"",""rshift""]","[1.3633999999761386,1.6823999999761554,2.2959999999999923]",0,0,0,22,1,1
648903,001,2023-11-16_11h11.01.336,exp_g2,2022.2.5,MacIntel,60.0024001,,,,,,,073,l1,f,en,na,audio/073.wav,,l1_f_en_na_073,,,,,,,image/america.png,image/spain.png,,,,,,,,,,,,2,america,spain,,,,,,,,,,,"[""lshift"",""lshift""]","[1.5554000000357746,2.222900000035793]",0,1,1,12,1,
648903,001,2023-11-16_11h11.01.336,exp_g2,2022.2.5,MacIntel,60.0024001,,,,,,,086,l1,f,sp,na,audio/086.wav,,l1_f_sp_na_086,,,,,,,image/america.png,image/spain.png,,,,,,,,,,,,2,america,spain,,,,,,,,,,,"[""rshift""]",[1.317699999988065],0,2,2,25,1,
648903,001,2023-11-16_11h11.01.336,exp_g2,2022.2.5,MacIntel,60.0024001,,,,,,,080,l1,f,se,na,audio/080.wav,,l1_f_se_na_080,,,,,,,image/america.png,image/spain.png,,,,,,,,,,,,2,america,spain,,,,,,,,,,,"[""rshift""]",[1.4126000000238719],0,3,3,19,1,1
648903,001,2023-11-16_11h11.01.336,exp_g2,2022.2.5,MacIntel,60.0024001,,,,,,,076,l1,f,se,na,audio/076.wav,,l1_f_se_na_076,,,,,,,image/america.png,image/spain.png,,,,,,,,,,,,2,america,spain,,,,,,,,,,,"[""rshift""]",[1.2836999999880732],0,4,4,15,1,1
648903,001,2023-11-16_11h11.01.336,exp_g2,2022.2.5,MacIntel,60.0024001,,,,,,,011,l1,t,es,na,audio/011.wav,,l1_t_es_na_011,,,,,,,image/america.png,image/spain.png,,,,,,,,,,,,2,america,spain,,,,,,,,,,,"[""lshift""]",[1.3704999999999927],0,5,5,35,1,1
648903,001,2023-11-16_11h11.01.336,exp_g2,2022.2.5,MacIntel,60.0024001,,,,,,,077,l1,f,se,na,audio/077.wav,,l1_f_se_na_077,,,,,,,image/america.png,image/spain.png,,,,,,,,,,,,2,america,spain,,,,,,,,,,,"[""rshift"",""lshift""]","[1.1169000000357414,1.8349000000357591]",0,6,6,16,1,1
648903,001,2023-11-16_11h11.01.336,exp_g2,2022.2.5,MacIntel,60.0024001,,,,,,,089,l1,f,sp,na,audio/089.wav,,l1_f_sp_na_089,,,,,,,image/america.png,image/spain.png,,,,,,,,,,,,2,america,spain,,,,,,,,,,,"[""rshift""]",[1.2128000000119528],0,7,7,28,1,
648903,001,2023-11-16_11h11.01.336,exp_g2,2022.2.5,MacIntel,60.0024001,,,,,,,064,l1,f,en,na,audio/064.wav,,l1_f_en_na_064,,,,,,,image/america.png,image/spain.png,,,,,,,,,,,,2,america,spain,,,,,,,,,,,"[""lshift""]",[1.2370000000000232],0,8,8,3,1,
648903,001,2023-11-16_11h11.01.336,exp_g2,2022.2.5,MacIntel,60.0024001,,,,,,,018,l1,t,es,na,audio/018.wav,,l1_t_es_na_018,,,,,,,image/america.png,image/spain.png,,,,,,,,,,,,2,america,spain,,,,,,,,,,,"[""lshift"",""rshift""]","[1.1589000000357714,2.1542000000476946]",0,9,9,42,1,1
648903,001,2023-11-16_11h11.01.336,exp_g2,2022.2.5,MacIntel,60.0024001,,,,,,,068,l1,f,en,na,audio/068.wav,,l1_f_en_na_068,,,,,,,image/america.png,image/spain.png,,,,,,,,,,,,2,america,spain,,,,,,,,,,,"[""lshift""]",[1.2393000000118946],0,10,10,7,1,
648903,001,2023-11-16_11h11.01.336,exp_g2,2022.2.5,MacIntel,60.0024001,,,,,,,082,l1,f,se,na,audio/082.wav,,l1_f_se_na_082,,,,,,,image/america.png,image/spain.png,,,,,,,,,,,,2,america,spain,,,,,,,,,,,"[""rshift""]",[1.1188999999761222],0,11,11,21,1,1
648903,001,2023-11-16_11h11.01.336,exp_g2,2022.2.5,MacIntel,60.0024001,,,,,,,071,l1,f,en,na,audio/071.wav,,l1_f_en_na_071,,,,,,,image/america.png,image/spain.png,,,,,,,,,,,,2,america,spain,,,,,,,,,,,"[""lshift""]",[1.1715000000000373],0,12,12,10,1,
648903,001,2023-11-16_11h11.01.336,exp_g2,2022.2.5,MacIntel,60.0024001,,,,,,,147,l2,t,es,f0u,audio/147.wav,,l2_t_es_f0u_147,,,,,,,image/america.png,image/spain.png,,,,,,,,,,,,2,america,spain,,,,,,,,,,,"[""lshift"",""rshift""]","[1.5018000000118832,2.501800000011883]",0,13,13,51,1,1
648903,001,2023-11-16_11h11.01.336,exp_g2,2022.2.5,MacIntel,60.0024001,,,,,,,062,l1,f,en,na,audio/062.wav,,l1_f_en_na_062,,,,,,,image/america.png,image/spain.png,,,,,,,,,,,,2,america,spain,,,,,,,,,,,"[""lshift""]",[1.2073000000119123],0,14,14,1,1,
648903,001,2023-11-16_11h11.01.336,exp_g2,2022.2.5,MacIntel,60.0024001,,,,,,,066,l1,f,en,na,audio/066.wav,,l1_f_en_na_066,,,,,,,image/america.png,image/spain.png,,,,,,,,,,,,2,america,spain,,,,,,,,,,,"[""lshift""]",[1.3757000000476864],0,15,15,5,1,
648903,001,2023-11-16_11h11.01.336,exp_g2,2022.2.5,MacIntel,60.0024001,,,,,,,017,l1,t,es,na,audio/017.wav,,l1_t_es_na_017,,,,,,,image/america.png,image/spain.png,,,,,,,,,,,,2,america,spain,,,,,,,,,,,"[""lshift"",""rshift""]","[1.4013000000119291,2.467700000047671]",0,16,16,41,1,1
648903,001,2023-11-16_11h11.01.336,exp_g2,2022.2.5,MacIntel,60.0024001,,,,,,,150,l2,t,es,f0u,audio/150.wav,,l2_t_es_f0u_150,,,,,,,image/america.png,image/spain.png,,,,,,,,,,,,2,america,spain,,,,,,,,,,,"[""lshift"",""rshift""]","[1.1186999999881095,2.250499999999988]",0,17,17,54,1,1
648903,001,2023-11-16_11h11.01.336,exp_g2,2022.2.5,MacIntel,60.0024001,,,,,,,095,l1,f,sp,na,audio/095.wav,,l1_f_sp_na_095,,,,,,,image/america.png,image/spain.png,,,,,,,,,,,,2,america,spain,,,,,,,,,,,"[""rshift""]",[1.3050000000000068],0,18,18,34,1,
648903,001,2023-11-16_11h11.01.336,exp_g2,2022.2.5,MacIntel,60.0024001,,,,,,,092,l1,f,sp,na,audio/092.wav,,l1_f_sp_na_092,,,,,,,image/america.png,image/spain.png,,,,,,,,,,,,2,america,spain,,,,,,,,,,,"[""rshift""]",[1.49140000003581],0,19,19,31,1,
648903,001,2023-11-16_11h11.01.336,exp_g2,2022.2.5,MacIntel,60.0024001,,,,,,,149,l2,t,es,f0u,audio/149.wav,,l2_t_es_f0u_149,,,,,,,image/america.png,image/spain.png,,,,,,,,,,,,2,america,spain,,,,,,,,,,,"[""lshift"",""rshift""]","[1.4839999999999804,2.5018999999761604]",0,20,20,53,1,1
648903,001,2023-11-16_11h11.01.336,exp_g2,2022.2.5,MacIntel,60.0024001,,,,,,,093,l1,f,sp,na,audio/093.wav,,l1_f_sp_na_093,,,,,,,image/america.png,image/spain.png,,,,,,,,,,,,2,america,spain,,,,,,,,,,,"[""rshift""]",[1.188299999952335],0,21,21,32,1,
648903,001,2023-11-16_11h11.01.336,exp_g2,2022.2.5,MacIntel,60.0024001,,,,,,,148,l2,t,es,f0u,audio/148.wav,,l2_t_es_f0u_148,,,,,,,image/america.png,image/spain.png,,,,,,,,,,,,2,america,spain,,,,,,,,,,,"[""lshift"",""rshift""]","[1.4498999999761395,2.007399999976144]",0,22,22,52,1,1
648903,001,2023-11-16_11h11.01.336,exp_g2,2022.2.5,MacIntel,60.0024001,,,,,,,094,l1,f,sp,na,audio/094.wav,,l1_f_sp_na_094,,,,,,,image/america.png,image/spain.png,,,,,,,,,,,,2,america,spain,,,,,,,,,,,"[""rshift""]",[1.4749000000357455],0,23,23,33,1,
648903,001,2023-11-16_11h11.01.336,exp_g2,2022.2.5,MacIntel,60.0024001,,,,,,,085,l1,f,se,na,audio/085.wav,,l1_f_se_na_085,,,,,,,image/america.png,image/spain.png,,,,,,,,,,,,2,america,spain,,,,,,,,,,,"[""rshift"",""lshift""]","[1.4053000000118914,2.5356000000238055]",0,24,24,24,1,1
648903,001,2023-11-16_11h11.01.336,exp_g2,2022.2.5,MacIntel,60.0024001,,,,,,,091,l1,f,sp,na,audio/091.wav,,l1_f_sp_na_091,,,,,,,image/america.png,image/spain.png,,,,,,,,,,,,2,america,spain,,,,,,,,,,,"[""rshift""]",[1.3586000000238414],0,25,25,30,1,
648903,001,2023-11-16_11h11.01.336,exp_g2,2022.2.5,MacIntel,60.0024001,,,,,,,013,l1,t,es,na,audio/013.wav,,l1_t_es_na_013,,,,,,,image/america.png,image/spain.png,,,,,,,,,,,,2,america,spain,,,,,,,,,,,"[""lshift"",""rshift""]","[1.3496000000238837,2.6349000000357705]",0,26,26,37,1,1
648903,001,2023-11-16_11h11.01.336,exp_g2,2022.2.5,MacIntel,60.0024001,,,,,,,144,l2,t,es,f0u,audio/144.wav,,l2_t_es_f0u_144,,,,,,,image/america.png,image/spain.png,,,,,,,,,,,,2,america,spain,,,,,,,,,,,"[""lshift"",""rshift""]","[1.823399999976175,2.139800000011917]",0,27,27,48,1,1
648903,001,2023-11-16_11h11.01.336,exp_g2,2022.2.5,MacIntel,60.0024001,,,,,,,016,l1,t,es,na,audio/016.wav,,l1_t_es_na_016,,,,,,,image/america.png,image/spain.png,,,,,,,,,,,,2,america,spain,,,,,,,,,,,"[""lshift"",""rshift""]","[1.3691000000238205,2.9346000000238632]",0,28,28,40,1,1
648903,001,2023-11-16_11h11.01.336,exp_g2,2022.2.5,MacIntel,60.0024001,,,,,,,074,l1,f,en,na,audio/074.wav,,l1_f_en_na_074,,,,,,,image/america.png,image/spain.png,,,,,,,,,,,,2,america,spain,,,,,,,,,,,"[""lshift""]",[1.2678999999761231],0,29,29,13,1,
648903,001,2023-11-16_11h11.01.336,exp_g2,2022.2.5,MacIntel,60.0024001,,,,,,,065,l1,f,en,na,audio/065.wav,,l1_f_en_na_065,,,,,,,image/america.png,image/spain.png,,,,,,,,,,,,2,america,spain,,,,,,,,,,,"[""lshift""]",[1.2711999999880845],0,30,30,4,1,
648903,001,2023-11-16_11h11.01.336,exp_g2,2022.2.5,MacIntel,60.0024001,,,,,,,061,l1,f,en,na,audio/061.wav,,l1_f_en_na_061,,,,,,,image/america.png,image/spain.png,,,,,,,,,,,,2,america,spain,,,,,,,,,,,"[""lshift""]",[1.4351000000238514],0,31,31,0,1,
648903,001,2023-11-16_11h11.01.336,exp_g2,2022.2.5,MacIntel,60.0024001,,,,,,,069,l1,f,en,na,audio/069.wav,,l1_f_en_na_069,,,,,,,image/america.png,image/spain.png,,,,,,,,,,,,2,america,spain,,,,,,,,,,,"[""lshift""]",[1.636000000000024],0,32,32,8,1,
648903,001,2023-11-16_11h11.01.336,exp_g2,2022.2.5,MacIntel,60.0024001,,,,,,,020,l1,t,es,na,audio/020.wav,,l1_t_es_na_020,,,,,,,image/america.png,image/spain.png,,,,,,,,,,,,2,america,spain,,,,,,,,,,,"[""lshift"",""rshift""]","[1.9678999999761686,2.4891999999881023]",0,33,33,44,1,1
648903,001,2023-11-16_11h11.01.336,exp_g2,2022.2.5,MacIntel,60.0024001,,,,,,,090,l1,f,sp,na,audio/090.wav,,l1_f_sp_na_090,,,,,,,image/america.png,image/spain.png,,,,,,,,,,,,2,america,spain,,,,,,,,,,,"[""rshift""]",[1.808999999999969],0,34,34,29,1,
648903,001,2023-11-16_11h11.01.336,exp_g2,2022.2.5,MacIntel,60.0024001,,,,,,,078,l1,f,se,na,audio/078.wav,,l1_f_se_na_078,,,,,,,image/america.png,image/spain.png,,,,,,,,,,,,2,america,spain,,,,,,,,,,,"[""rshift"",""lshift""]","[1.2523000000119282,1.8651000000238582]",0,35,35,17,1,1
648903,001,2023-11-16_11h11.01.336,exp_g2,2022.2.5,MacIntel,60.0024001,,,,,,,142,l2,t,es,f0u,audio/142.wav,,l2_t_es_f0u_142,,,,,,,image/america.png,image/spain.png,,,,,,,,,,,,2,america,spain,,,,,,,,,,,"[""lshift"",""rshift""]","[1.4988999999761745,2.0188999999761563]",0,36,36,46,1,1
648903,001,2023-11-16_11h11.01.336,exp_g2,2022.2.5,MacIntel,60.0024001,,,,,,,143,l2,t,es,f0u,audio/143.wav,,l2_t_es_f0u_143,,,,,,,image/america.png,image/spain.png,,,,,,,,,,,,2,america,spain,,,,,,,,,,,"[""lshift"",""rshift""]","[1.3845999999641663,2.91989999997611]",0,37,37,47,1,1
648903,001,2023-11-16_11h11.01.336,exp_g2,2022.2.5,MacIntel,60.0024001,,,,,,,079,l1,f,se,na,audio/079.wav,,l1_f_se_na_079,,,,,,,image/america.png,image/spain.png,,,,,,,,,,,,2,america,spain,,,,,,,,,,,"[""lshift"",""rshift"",""rshift"",""rshift""]","[1.4516999999881364,2.259699999988129,2.9088999999762564,3.1178000000119255]",0,38,38,18,1,1
648903,001,2023-11-16_11h11.01.336,exp_g2,2022.2.5,MacIntel,60.0024001,,,,,,,141,l2,t,es,f0u,audio/141.wav,,l2_t_es_f0u_141,,,,,,,image/america.png,image/spain.png,,,,,,,,,,,,2,america,spain,,,,,,,,,,,"[""lshift"",""rshift""]","[1.6893999999762173,2.134199999988141]",0,39,39,45,1,1
648903,001,2023-11-16_11h11.01.336,exp_g2,2022.2.5,MacIntel,60.0024001,,,,,,,084,l1,f,se,na,audio/084.wav,,l1_f_se_na_084,,,,,,,image/america.png,image/spain.png,,,,,,,,,,,,2,america,spain,,,,,,,,,,,"[""rshift""]",[1.5499999999999545],0,40,40,23,1,1
648903,001,2023-11-16_11h11.01.336,exp_g2,2022.2.5,MacIntel,60.0024001,,,,,,,019,l1,t,es,na,audio/019.wav,,l1_t_es_na_019,,,,,,,image/america.png,image/spain.png,,,,,,,,,,,,2,america,spain,,,,,,,,,,,"[""lshift"",""rshift""]","[1.3519999999999754,2.743399999976077]",0,41,41,43,1,1
648903,001,2023-11-16_11h11.01.336,exp_g2,2022.2.5,MacIntel,60.0024001,,,,,,,088,l1,f,sp,na,audio/088.wav,,l1_f_sp_na_088,,,,,,,image/america.png,image/spain.png,,,,,,,,,,,,2,america,spain,,,,,,,,,,,"[""rshift""]",[1.7181999999880873],0,42,42,27,1,
648903,001,2023-11-16_11h11.01.336,exp_g2,2022.2.5,MacIntel,60.0024001,,,,,,,014,l1,t,es,na,audio/014.wav,,l1_t_es_na_014,,,,,,,image/america.png,image/spain.png,,,,,,,,,,,,2,america,spain,,,,,,,,,,,"[""lshift"",""rshift""]","[1.7168000000118582,2.205400000035752]",0,43,43,38,1,1
648903,001,2023-11-16_11h11.01.336,exp_g2,2022.2.5,MacIntel,60.0024001,,,,,,,015,l1,t,es,na,audio/015.wav,,l1_t_es_na_015,,,,,,,image/america.png,image/spain.png,,,,,,,,,,,,2,america,spain,,,,,,,,,,,"[""lshift"",""rshift""]","[1.30059999996422,2.221699999988118]",0,44,44,39,1,1
648903,001,2023-11-16_11h11.01.336,exp_g2,2022.2.5,MacIntel,60.0024001,,,,,,,012,l1,t,es,na,audio/012.wav,,l1_t_es_na_012,,,,,,,image/america.png,image/spain.png,,,,,,,,,,,,2,america,spain,,,,,,,,,,,"[""lshift"",""rshift""]","[1.534100000023841,2.24040000003572]",0,45,45,36,1,1
648903,001,2023-11-16_11h11.01.336,exp_g2,2022.2.5,MacIntel,60.0024001,,,,,,,081,l1,f,se,na,audio/081.wav,,l1_f_se_na_081,,,,,,,image/america.png,image/spain.png,,,,,,,,,,,,2,america,spain,,,,,,,,,,,"[""rshift""]",[1.81790000003582],0,46,46,20,1,1
648903,001,2023-11-16_11h11.01.336,exp_g2,2022.2.5,MacIntel,60.0024001,,,,,,,067,l1,f,en,na,audio/067.wav,,l1_f_en_na_067,,,,,,,image/america.png,image/spain.png,,,,,,,,,,,,2,america,spain,,,,,,,,,,,"[""lshift""]",[1.4918000000119491],0,47,47,6,1,
648903,001,2023-11-16_11h11.01.336,exp_g2,2022.2.5,MacIntel,60.0024001,,,,,,,075,l1,f,en,na,audio/075.wav,,l1_f_en_na_075,,,,,,,image/america.png,image/spain.png,,,,,,,,,,,,2,america,spain,,,,,,,,,,,"[""lshift""]",[1.4890000000000327],0,48,48,14,1,
648903,001,2023-11-16_11h11.01.336,exp_g2,2022.2.5,MacIntel,60.0024001,,,,,,,072,l1,f,en,na,audio/072.wav,,l1_f_en_na_072,,,,,,,image/america.png,image/spain.png,,,,,,,,,,,,2,america,spain,,,,,,,,,,,"[""lshift""]",[1.4012999999522435],0,49,49,11,1,
648903,001,2023-11-16_11h11.01.336,exp_g2,2022.2.5,MacIntel,60.0024001,,,,,,,087,l1,f,sp,na,audio/087.wav,,l1_f_sp_na_087,,,,,,,image/america.png,image/spain.png,,,,,,,,,,,,2,america,spain,,,,,,,,,,,"[""rshift""]",[1.6460000000000719],0,50,50,26,1,
648903,001,2023-11-16_11h11.01.336,exp_g2,2022.2.5,MacIntel,60.0024001,,,,,,,070,l1,f,en,na,audio/070.wav,,l1_f_en_na_070,,,,,,,image/america.png,image/spain.png,,,,,,,,,,,,2,america,spain,,,,,,,,,,,"[""lshift""]",[1.9340999999641326],0,51,51,9,1,
648903,001,2023-11-16_11h11.01.336,exp_g2,2022.2.5,MacIntel,60.0024001,,,,,,,063,l1,f,en,na,audio/063.wav,,l1_f_en_na_063,,,,,,,image/america.png,image/spain.png,,,,,,,,,,,,2,america,spain,,,,,,,,,,,"[""lshift""]",[1.3833000000119],0,52,52,2,1,
648903,001,2023-11-16_11h11.01.336,exp_g2,2022.2.5,MacIntel,60.0024001,,,,,,,146,l2,t,es,f0u,audio/146.wav,,l2_t_es_f0u_146,,,,,,,image/america.png,image/spain.png,,,,,,,,,,,,2,america,spain,,,,,,,,,,,"[""lshift"",""rshift""]","[1.474199999988059,2.7110000000000127]",0,53,53,50,1,1
648903,001,2023-11-16_11h11.01.336,exp_g2,2022.2.5,MacIntel,60.0024001,,,,,,,145,l2,t,es,f0u,audio/145.wav,,l2_t_es_f0u_145,,,,,,,image/america.png,image/spain.png,,,,,,,,,,,,2,america,spain,,,,,,,,,,,"[""lshift"",""rshift""]","[1.5170999999642163,2.07469999998807]",0,54,54,49,1,1
648903,001,2023-11-16_11h11.01.336,exp_g2,2022.2.5,MacIntel,60.0024001,,,,,,,,,,,,,,,,,,,,,,,,,,,,,,,,,,,,,,,,,,,,,,,,,,,,,,
