participant,session,date,expName,psychopyVersion,OS,frameRate,exp1_trial_key.keys,exp1_trial_loop.thisRepN,exp1_trial_loop.thisTrialN,exp1_trial_loop.thisN,exp1_trial_loop.thisIndex,exp1_trial_loop.ran,num,list,cond,lang,type,sound_dir,phr,sent_code,mat,mat_num,emb_num,emb,cut,mat_f0_c,left,right,correct_img,correct_key,exp1_retrial.thisRepN,exp1_retrial.thisTrialN,exp1_retrial.thisN,exp1_retrial.thisIndex,exp1_retrial.ran,exp1_trial_key.rt,exp1_key.keys,exp1_key.corr,exp1_key.rt,exp1_loop.thisRepN,exp1_loop.thisTrialN,exp1_loop.thisN,exp1_loop.thisIndex,exp1_loop.ran,exp_num,image,image_alt,left_img,right_img,image_dir,exp2_trial_key.keys,exp2_trial_key.rt,exp2_trial_loop.thisRepN,exp2_trial_loop.thisTrialN,exp2_trial_loop.thisN,exp2_trial_loop.thisIndex,exp2_trial_loop.ran,exp2_key.keys,exp2_key.rt,exp2_loop.thisRepN,exp2_loop.thisTrialN,exp2_loop.thisN,exp2_loop.thisIndex,exp2_loop.ran,cs
073,001,2023-09-11_17h01.16.888,exp_g2,2022.2.5,MacIntel,62.5,,,,,,,,,,,,,,,,,,,,,,,,,,,,,,,,,,,,,,,,,,,,,,,,,,,,,,,,,,,
073,001,2023-09-11_17h01.16.888,exp_g2,2022.2.5,MacIntel,62.5,,0,0,0,0,1,tr1,lt,tr,en,na,practice_trial/audio/tr1.wav,Where are your kids?,lt_tr_en_na_tr1,-,-,-,-,-,-,image/kids.png,image/plates.png,kids,lshift,,,,,,,,,,,,,,,,,,,,,,,,,,,,,,,,,,,
073,001,2023-09-11_17h01.16.888,exp_g2,2022.2.5,MacIntel,62.5,,0,1,1,1,1,tr2,lt,tr,en,na,practice_trial/audio/tr2.wav,Who is buying my car?,lt_tr_en_na_tr2,-,-,-,-,-,-,image/bag.png,image/car.png,car,rshift,,,,,,,,,,,,,,,,,,,,,,,,,,,,,,,,,,,
073,001,2023-09-11_17h01.16.888,exp_g2,2022.2.5,MacIntel,62.5,,0,2,2,2,1,tr3,lt,tr,sp,na,practice_trial/audio/tr3.wav,¿Dónde está mi perro?,lt_tr_sp_na_tr3,-,-,-,-,-,-,image/dog.png,image/grandma.png,dog,lshift,,,,,,,,,,,,,,,,,,,,,,,,,,,,,,,,,,,
073,001,2023-09-11_17h01.16.888,exp_g2,2022.2.5,MacIntel,62.5,,0,3,3,3,1,tr4,lt,tr,sp,na,practice_trial/audio/tr4.wav,¿De quién es la bolsa?,lt_tr_sp_na_tr4,-,-,-,-,-,-,image/shirt.png,image/bag.png,bag,rshift,,,,,,,,,,,,,,,,,,,,,,,,,,,,,,,,,,,
073,001,2023-09-11_17h01.16.888,exp_g2,2022.2.5,MacIntel,62.5,,0,4,4,4,1,tr5,lt,tr,se,na,practice_trial/audio/tr5.wav,¿Dónde encontraste sus donuts?,lt_tr_se_na_tr5,-,-,-,-,-,-,image/donut.png,image/cups.png,donut,lshift,,,,,,,,,,,,,,,,,,,,,,,,,,,,,,,,,,,
073,001,2023-09-11_17h01.16.888,exp_g2,2022.2.5,MacIntel,62.5,,0,5,5,5,1,tr6,lt,tr,se,na,practice_trial/audio/tr6.wav,¿Cuándo compraste tu sweater?,lt_tr_se_na_tr6,-,-,-,-,-,-,image/chair.png,image/sweater.png,sweater,rshift,,,,,,,,,,,,,,,,,,,,,,,,,,,,,,,,,,,
073,001,2023-09-11_17h01.16.888,exp_g2,2022.2.5,MacIntel,62.5,,0,6,6,6,1,tr7,lt,tr,es,na,practice_trial/audio/tr7.wav,Why do you have my camisa?,lt_tr_es_na_tr7,-,-,-,-,-,-,image/shirt.png,image/wallet.png,shirt,lshift,,,,,,,,,,,,,,,,,,,,,,,,,,,,,,,,,,,
073,001,2023-09-11_17h01.16.888,exp_g2,2022.2.5,MacIntel,62.5,,0,7,7,7,1,tr8,lt,tr,es,na,practice_trial/audio/tr8.wav,Where did you find his chanclas?,lt_tr_es_na_tr8,-,-,-,-,-,-,image/key.png,image/flipflops.png,flipflops,rshift,,,,,,,,,,,,,,,,,,,,,,,,,,,,,,,,,,,
073,001,2023-09-11_17h01.16.888,exp_g2,2022.2.5,MacIntel,62.5,,,,,,,,,,,,,,,,,,,,,,,,,0,0,0,0,1,,,,,,,,,,,,,,,,,,,,,,,,,,,,,,
073,001,2023-09-11_17h01.16.888,exp_g2,2022.2.5,MacIntel,62.5,"[""lshift""]",0,0,0,0,1,tr1,lt,tr,en,na,practice_trial/audio/tr1.wav,Where are your kids?,lt_tr_en_na_tr1,-,-,-,-,-,-,image/kids.png,image/plates.png,kids,lshift,,,,,,[1.8160000000000025],,,,,,,,,,,,,,,,,,,,,,,,,,,,,
073,001,2023-09-11_17h01.16.888,exp_g2,2022.2.5,MacIntel,62.5,"[""rshift""]",0,1,1,1,1,tr2,lt,tr,en,na,practice_trial/audio/tr2.wav,Who is buying my car?,lt_tr_en_na_tr2,-,-,-,-,-,-,image/bag.png,image/car.png,car,rshift,,,,,,[2.0990000000000038],,,,,,,,,,,,,,,,,,,,,,,,,,,,,
073,001,2023-09-11_17h01.16.888,exp_g2,2022.2.5,MacIntel,62.5,"[""lshift""]",0,2,2,2,1,tr3,lt,tr,sp,na,practice_trial/audio/tr3.wav,¿Dónde está mi perro?,lt_tr_sp_na_tr3,-,-,-,-,-,-,image/dog.png,image/grandma.png,dog,lshift,,,,,,[1.5190000000000055],,,,,,,,,,,,,,,,,,,,,,,,,,,,,
073,001,2023-09-11_17h01.16.888,exp_g2,2022.2.5,MacIntel,62.5,"[""rshift""]",0,3,3,3,1,tr4,lt,tr,sp,na,practice_trial/audio/tr4.wav,¿De quién es la bolsa?,lt_tr_sp_na_tr4,-,-,-,-,-,-,image/shirt.png,image/bag.png,bag,rshift,,,,,,[2.4710000000000036],,,,,,,,,,,,,,,,,,,,,,,,,,,,,
073,001,2023-09-11_17h01.16.888,exp_g2,2022.2.5,MacIntel,62.5,"[""lshift""]",0,4,4,4,1,tr5,lt,tr,se,na,practice_trial/audio/tr5.wav,¿Dónde encontraste sus donuts?,lt_tr_se_na_tr5,-,-,-,-,-,-,image/donut.png,image/cups.png,donut,lshift,,,,,,[2.4509999999999934],,,,,,,,,,,,,,,,,,,,,,,,,,,,,
073,001,2023-09-11_17h01.16.888,exp_g2,2022.2.5,MacIntel,62.5,"[""rshift""]",0,5,5,5,1,tr6,lt,tr,se,na,practice_trial/audio/tr6.wav,¿Cuándo compraste tu sweater?,lt_tr_se_na_tr6,-,-,-,-,-,-,image/chair.png,image/sweater.png,sweater,rshift,,,,,,[2.4650000000000034],,,,,,,,,,,,,,,,,,,,,,,,,,,,,
073,001,2023-09-11_17h01.16.888,exp_g2,2022.2.5,MacIntel,62.5,"[""lshift""]",0,6,6,6,1,tr7,lt,tr,es,na,practice_trial/audio/tr7.wav,Why do you have my camisa?,lt_tr_es_na_tr7,-,-,-,-,-,-,image/shirt.png,image/wallet.png,shirt,lshift,,,,,,[2.580999999999989],,,,,,,,,,,,,,,,,,,,,,,,,,,,,
073,001,2023-09-11_17h01.16.888,exp_g2,2022.2.5,MacIntel,62.5,"[""rshift""]",0,7,7,7,1,tr8,lt,tr,es,na,practice_trial/audio/tr8.wav,Where did you find his chanclas?,lt_tr_es_na_tr8,-,-,-,-,-,-,image/key.png,image/flipflops.png,flipflops,rshift,,,,,,[1.9989999999999952],,,,,,,,,,,,,,,,,,,,,,,,,,,,,
073,001,2023-09-11_17h01.16.888,exp_g2,2022.2.5,MacIntel,62.5,,,,,,,,,,,,,,,,,,,,,,,,,,,,,,,,,,,,,,,,,,,,,,,,,,,,,,,,,,,
073,001,2023-09-11_17h01.16.888,exp_g2,2022.2.5,MacIntel,62.5,,,,,,,125,l2,f,sp,na,audio/125.wav,,l2_f_sp_na_125,,,,,,,image/desk.png,image/bottle.png,desk,lshift,,,,,,,rshift,0,2.964,0,0,0,29,1,1,desk,bottle,desk,bottle,,,,,,,,,,,,,,,,
073,001,2023-09-11_17h01.16.888,exp_g2,2022.2.5,MacIntel,62.5,,,,,,,024,l2,t,es,na,audio/024.wav,,l2_t_es_na_024,,,,,,,image/bed.png,image/jug.png,jug,rshift,,,,,,,rshift,1,2.745,0,1,1,38,1,1,jug,bed,bed,jug,,,,,,,,,,,,,,,,
073,001,2023-09-11_17h01.16.888,exp_g2,2022.2.5,MacIntel,62.5,,,,,,,115,l2,f,se,na,audio/115.wav,,l2_f_se_na_115,,,,,,,image/notebook.png,image/cellphone.png,notebook,lshift,,,,,,,lshift,1,2.304,0,2,2,19,1,1,notebook,cellphone,notebook,cellphone,,,,,,,,,,,,,,,,
073,001,2023-09-11_17h01.16.888,exp_g2,2022.2.5,MacIntel,62.5,,,,,,,126,l2,f,sp,na,audio/126.wav,,l2_f_sp_na_126,,,,,,,image/backpack.png,image/key.png,key,rshift,,,,,,,rshift,1,2.201,0,3,3,30,1,1,key,backpack,backpack,key,,,,,,,,,,,,,,,,
073,001,2023-09-11_17h01.16.888,exp_g2,2022.2.5,MacIntel,62.5,,,,,,,130,l2,f,sp,na,audio/130.wav,,l2_f_sp_na_130,,,,,,,image/socks.png,image/glasses.png,glasses,rshift,,,,,,,rshift,1,2.146,0,4,4,34,1,1,glasses,socks,socks,glasses,,,,,,,,,,,,,,,,
073,001,2023-09-11_17h01.16.888,exp_g2,2022.2.5,MacIntel,62.5,,,,,,,109,l2,f,en,na,audio/109.wav,,l2_f_en_na_109,,,,,,,image/fish.png,image/woman.png,fish,lshift,,,,,,,lshift,1,1.811,0,5,5,13,1,1,fish,woman,fish,woman,,,,,,,,,,,,,,,,
073,001,2023-09-11_17h01.16.888,exp_g2,2022.2.5,MacIntel,62.5,,,,,,,146,l2,t,es,f0u,audio/146.wav,,l2_t_es_f0u_146,,,,,,,image/cellphone.png,image/flipflops.png,flipflops,rshift,,,,,,,rshift,1,3.342,0,6,6,50,1,1,flipflops,cellphone,cellphone,flipflops,,,,,,,,,,,,,,,,
073,001,2023-09-11_17h01.16.888,exp_g2,2022.2.5,MacIntel,62.5,,,,,,,141,l2,t,es,f0u,audio/141.wav,,l2_t_es_f0u_141,,,,,,,image/dog.png,image/backpack.png,dog,lshift,,,,,,,lshift,1,2.198,0,7,7,45,1,1,dog,backpack,dog,backpack,,,,,,,,,,,,,,,,
073,001,2023-09-11_17h01.16.888,exp_g2,2022.2.5,MacIntel,62.5,,,,,,,112,l2,f,se,na,audio/112.wav,,l2_f_se_na_112,,,,,,,image/burger.png,image/hotdog.png,hotdog,rshift,,,,,,,rshift,1,2.271,0,8,8,16,1,1,hotdog,burger,burger,hotdog,,,,,,,,,,,,,,,,
073,001,2023-09-11_17h01.16.888,exp_g2,2022.2.5,MacIntel,62.5,,,,,,,114,l2,f,se,na,audio/114.wav,,l2_f_se_na_114,,,,,,,image/jeans.png,image/sweatpants.png,sweatpants,rshift,,,,,,,lshift,0,2.424,0,9,9,18,1,1,sweatpants,jeans,jeans,sweatpants,,,,,,,,,,,,,,,,
073,001,2023-09-11_17h01.16.888,exp_g2,2022.2.5,MacIntel,62.5,,,,,,,116,l2,f,se,na,audio/116.wav,,l2_f_se_na_116,,,,,,,image/sweatpants.png,image/boxers.png,boxers,rshift,,,,,,,rshift,1,2.538,0,10,10,20,1,1,boxers,sweatpants,sweatpants,boxers,,,,,,,,,,,,,,,,
073,001,2023-09-11_17h01.16.888,exp_g2,2022.2.5,MacIntel,62.5,,,,,,,107,l2,f,en,na,audio/107.wav,,l2_f_en_na_107,,,,,,,image/man.png,image/cat.png,man,lshift,,,,,,,lshift,1,2.438,0,11,11,11,1,1,man,cat,man,cat,,,,,,,,,,,,,,,,
073,001,2023-09-11_17h01.16.888,exp_g2,2022.2.5,MacIntel,62.5,,,,,,,102,l2,f,en,na,audio/102.wav,,l2_f_en_na_102,,,,,,,image/socks.png,image/book.png,books,rshift,,,,,,,rshift,1,2.255,0,12,12,6,1,1,books,socks,socks,book,,,,,,,,,,,,,,,,
073,001,2023-09-11_17h01.16.888,exp_g2,2022.2.5,MacIntel,62.5,,,,,,,098,l2,f,en,na,audio/098.wav,,l2_f_en_na_098,,,,,,,image/man.png,image/woman.png,woman,rshift,,,,,,,rshift,1,1.878,0,13,13,2,1,1,woman,man,man,woman,,,,,,,,,,,,,,,,
073,001,2023-09-11_17h01.16.888,exp_g2,2022.2.5,MacIntel,62.5,,,,,,,106,l2,f,en,na,audio/106.wav,,l2_f_en_na_106,,,,,,,image/wallet.png,image/computer.png,computer,rshift,,,,,,,rshift,1,2.704,0,14,14,10,1,1,computer,wallet,wallet,computer,,,,,,,,,,,,,,,,
073,001,2023-09-11_17h01.16.888,exp_g2,2022.2.5,MacIntel,62.5,,,,,,,025,l2,t,es,na,audio/025.wav,,l2_t_es_na_025,,,,,,,image/cellphone.png,image/truck.png,cellphone,lshift,,,,,,,lshift,1,2.502,0,15,15,39,1,1,cellphone,truck,cellphone,truck,,,,,,,,,,,,,,,,
073,001,2023-09-11_17h01.16.888,exp_g2,2022.2.5,MacIntel,62.5,,,,,,,022,l2,t,es,na,audio/022.wav,,l2_t_es_na_022,,,,,,,image/dog.png,image/cat.png,cat,rshift,,,,,,,rshift,1,2.231,0,16,16,36,1,1,cat,dog,dog,cat,,,,,,,,,,,,,,,,
073,001,2023-09-11_17h01.16.888,exp_g2,2022.2.5,MacIntel,62.5,,,,,,,127,l2,f,sp,na,audio/127.wav,,l2_f_sp_na_127,,,,,,,image/cat.png,image/dog.png,cat,lshift,,,,,,,lshift,1,2.182,0,17,17,31,1,1,cat,dog,cat,dog,,,,,,,,,,,,,,,,
073,001,2023-09-11_17h01.16.888,exp_g2,2022.2.5,MacIntel,62.5,,,,,,,027,l2,t,es,na,audio/027.wav,,l2_t_es_na_027,,,,,,,image/shirt.png,image/book.png,shirt,lshift,,,,,,,lshift,1,2.149,0,18,18,41,1,1,shirt,book,shirt,book,,,,,,,,,,,,,,,,
073,001,2023-09-11_17h01.16.888,exp_g2,2022.2.5,MacIntel,62.5,,,,,,,021,l2,t,es,na,audio/021.wav,,l2_t_es_na_021,,,,,,,image/jacket.png,image/flipflops.png,jacket,lshift,,,,,,,lshift,1,2.319,0,19,19,35,1,1,jacket,flipflops,jacket,flipflops,,,,,,,,,,,,,,,,
073,001,2023-09-11_17h01.16.888,exp_g2,2022.2.5,MacIntel,62.5,,,,,,,097,l2,f,en,na,audio/097.wav,,l2_f_en_na_097,,,,,,,image/ring.png,image/belt.png,ring,lshift,,,,,,,lshift,1,2.118,0,20,20,1,1,1,ring,belt,ring,belt,,,,,,,,,,,,,,,,
073,001,2023-09-11_17h01.16.888,exp_g2,2022.2.5,MacIntel,62.5,,,,,,,128,l2,f,sp,na,audio/128.wav,,l2_f_sp_na_128,,,,,,,image/cups.png,image/kids.png,kids,rshift,,,,,,,lshift,0,2.349,0,21,21,32,1,1,kids,cups,cups,kids,,,,,,,,,,,,,,,,
073,001,2023-09-11_17h01.16.888,exp_g2,2022.2.5,MacIntel,62.5,,,,,,,120,l2,f,se,na,audio/120.wav,,l2_f_se_na_120,,,,,,,image/glasses.png,image/joycons.png,joycons,rshift,,,,,,,rshift,1,2.687,0,22,22,24,1,1,joycons,glasses,glasses,joycons,,,,,,,,,,,,,,,,
073,001,2023-09-11_17h01.16.888,exp_g2,2022.2.5,MacIntel,62.5,,,,,,,100,l2,f,en,na,audio/100.wav,,l2_f_en_na_100,,,,,,,image/wallet.png,image/scarf.png,scarf,rshift,,,,,,,rshift,1,1.942,0,23,23,4,1,1,scarf,wallet,wallet,scarf,,,,,,,,,,,,,,,,
073,001,2023-09-11_17h01.16.888,exp_g2,2022.2.5,MacIntel,62.5,,,,,,,111,l2,f,se,na,audio/111.wav,,l2_f_se_na_111,,,,,,,image/mashedpotatoes.png,image/donut.png,mashedpotatoes,lshift,,,,,,,lshift,1,2.648,0,24,24,15,1,1,mashedpotatoes,donut,mashedpotatoes,donut,,,,,,,,,,,,,,,,
073,001,2023-09-11_17h01.16.888,exp_g2,2022.2.5,MacIntel,62.5,,,,,,,110,l2,f,en,na,audio/110.wav,,l2_f_en_na_110,,,,,,,image/dog.png,image/cat.png,cat,rshift,,,,,,,rshift,1,2.425,0,25,25,14,1,1,cat,dog,dog,cat,,,,,,,,,,,,,,,,
073,001,2023-09-11_17h01.16.888,exp_g2,2022.2.5,MacIntel,62.5,,,,,,,143,l2,t,es,f0u,audio/143.wav,,l2_t_es_f0u_143,,,,,,,image/horchata.png,image/beer.png,horchata,lshift,,,,,,,lshift,1,3.342,0,26,26,47,1,1,horchata,beer,horchata,beer,,,,,,,,,,,,,,,,
073,001,2023-09-11_17h01.16.888,exp_g2,2022.2.5,MacIntel,62.5,,,,,,,028,l2,t,es,na,audio/028.wav,,l2_t_es_na_028,,,,,,,image/pants.png,image/glasses.png,glasses,rshift,,,,,,,rshift,1,2.373,0,27,27,42,1,1,glasses,pants,pants,glasses,,,,,,,,,,,,,,,,
073,001,2023-09-11_17h01.16.888,exp_g2,2022.2.5,MacIntel,62.5,,,,,,,030,l2,t,es,na,audio/030.wav,,l2_t_es_na_030,,,,,,,image/flipflops.png,image/boy.png,boy,rshift,,,,,,,rshift,1,2.688,0,28,28,44,1,1,boy,flipflops,flipflops,boy,,,,,,,,,,,,,,,,
073,001,2023-09-11_17h01.16.888,exp_g2,2022.2.5,MacIntel,62.5,,,,,,,101,l2,f,en,na,audio/101.wav,,l2_f_en_na_101,,,,,,,image/computer.png,image/bag.png,computer,lshift,,,,,,,lshift,1,2.474,0,29,29,5,1,1,computer,bag,computer,bag,,,,,,,,,,,,,,,,
073,001,2023-09-11_17h01.16.888,exp_g2,2022.2.5,MacIntel,62.5,,,,,,,148,l2,t,es,f0u,audio/148.wav,,l2_t_es_f0u_148,,,,,,,image/newspaper.png,image/cups.png,cups,rshift,,,,,,,rshift,1,2.226,0,30,30,52,1,1,cups,newspaper,newspaper,cups,,,,,,,,,,,,,,,,
073,001,2023-09-11_17h01.16.888,exp_g2,2022.2.5,MacIntel,62.5,,,,,,,119,l2,f,se,na,audio/119.wav,,l2_f_se_na_119,,,,,,,image/penthouse.png,image/rocket.png,penthouse,lshift,,,,,,,lshift,1,2.595,0,31,31,23,1,1,penthouse,rocket,penthouse,rocket,,,,,,,,,,,,,,,,
073,001,2023-09-11_17h01.16.888,exp_g2,2022.2.5,MacIntel,62.5,,,,,,,105,l2,f,en,na,audio/105.wav,,l2_f_en_na_105,,,,,,,image/bed.png,image/plane.png,bed,lshift,,,,,,,lshift,1,1.958,0,32,32,9,1,1,bed,plane,bed,plane,,,,,,,,,,,,,,,,
073,001,2023-09-11_17h01.16.888,exp_g2,2022.2.5,MacIntel,62.5,,,,,,,104,l2,f,en,na,audio/104.wav,,l2_f_en_na_104,,,,,,,image/shirt.png,image/bag.png,bag,rshift,,,,,,,rshift,1,1.785,0,33,33,8,1,1,bag,shirt,shirt,bag,,,,,,,,,,,,,,,,
073,001,2023-09-11_17h01.16.888,exp_g2,2022.2.5,MacIntel,62.5,,,,,,,144,l2,t,es,f0u,audio/144.wav,,l2_t_es_f0u_144,,,,,,,image/bracelet.png,image/backpack.png,backpack,rshift,,,,,,,rshift,1,2.368,0,34,34,48,1,1,backpack,bracelet,bracelet,backpack,,,,,,,,,,,,,,,,
073,001,2023-09-11_17h01.16.888,exp_g2,2022.2.5,MacIntel,62.5,,,,,,,142,l2,t,es,f0u,audio/142.wav,,l2_t_es_f0u_142,,,,,,,image/car.png,image/truck.png,truck,rshift,,,,,,,rshift,1,3,0,35,35,46,1,1,truck,car,car,truck,,,,,,,,,,,,,,,,
073,001,2023-09-11_17h01.16.888,exp_g2,2022.2.5,MacIntel,62.5,,,,,,,096,l2,f,en,na,audio/096.wav,,l2_f_en_na_096,,,,,,,image/woman.png,image/cat.png,cat,rshift,,,,,,,rshift,1,2.29,0,36,36,0,1,1,cat,woman,woman,cat,image/,,,,,,,,,,,,,,,
073,001,2023-09-11_17h01.16.888,exp_g2,2022.2.5,MacIntel,62.5,,,,,,,103,l2,f,en,na,audio/103.wav,,l2_f_en_na_103,,,,,,,image/toys.png,image/sneakers.png,toys,lshift,,,,,,,lshift,1,2.176,0,37,37,7,1,1,toys,sneakers,toys,sneakers,,,,,,,,,,,,,,,,
073,001,2023-09-11_17h01.16.888,exp_g2,2022.2.5,MacIntel,62.5,,,,,,,108,l2,f,en,na,audio/108.wav,,l2_f_en_na_108,,,,,,,image/scarf.png,image/socks.png,socks,rshift,,,,,,,rshift,1,2.439,0,38,38,12,1,1,socks,scarf,scarf,socks,,,,,,,,,,,,,,,,
073,001,2023-09-11_17h01.16.888,exp_g2,2022.2.5,MacIntel,62.5,,,,,,,117,l2,f,se,na,audio/117.wav,,l2_f_se_na_117,,,,,,,image/spongebob.png,image/mickeymouse.png,spongebob,lshift,,,,,,,lshift,1,2.269,0,39,39,21,1,1,spongebob,mickeymouse,spongebob,mickeymouse,,,,,,,,,,,,,,,,
073,001,2023-09-11_17h01.16.888,exp_g2,2022.2.5,MacIntel,62.5,,,,,,,099,l2,f,en,na,audio/099.wav,,l2_f_en_na_099,,,,,,,image/dog.png,image/cat.png,dog,lshift,,,,,,,lshift,1,1.825,0,40,40,3,1,1,dog,cat,dog,cat,,,,,,,,,,,,,,,,
073,001,2023-09-11_17h01.16.888,exp_g2,2022.2.5,MacIntel,62.5,,,,,,,149,l2,t,es,f0u,audio/149.wav,,l2_t_es_f0u_149,,,,,,,image/boy.png,image/dog.png,boy,lshift,,,,,,,lshift,1,2.587,0,41,41,53,1,1,boy,dog,boy,dog,,,,,,,,,,,,,,,,
073,001,2023-09-11_17h01.16.888,exp_g2,2022.2.5,MacIntel,62.5,,,,,,,121,l2,f,sp,na,audio/121.wav,,l2_f_sp_na_121,,,,,,,image/shoe.png,image/glasses.png,shoe,lshift,,,,,,,lshift,1,2.168,0,42,42,25,1,1,shoe,glasses,shoe,glasses,,,,,,,,,,,,,,,,
073,001,2023-09-11_17h01.16.888,exp_g2,2022.2.5,MacIntel,62.5,,,,,,,023,l2,t,es,na,audio/023.wav,,l2_t_es_na_023,,,,,,,image/wine.png,image/cellphone.png,wine,lshift,,,,,,,lshift,1,2.219,0,43,43,37,1,1,wine,cellphone,wine,cellphone,,,,,,,,,,,,,,,,
073,001,2023-09-11_17h01.16.888,exp_g2,2022.2.5,MacIntel,62.5,,,,,,,026,l2,t,es,na,audio/026.wav,,l2_t_es_na_026,,,,,,,image/village.png,image/grandma.png,grandma,rshift,,,,,,,rshift,1,2.377,0,44,44,40,1,1,grandma,village,village,grandma,,,,,,,,,,,,,,,,
073,001,2023-09-11_17h01.16.888,exp_g2,2022.2.5,MacIntel,62.5,,,,,,,122,l2,f,sp,na,audio/122.wav,,l2_f_sp_na_122,,,,,,,image/desk.png,image/chair.png,chair,rshift,,,,,,,rshift,1,2.674,0,45,45,26,1,1,chair,desk,desk,chair,,,,,,,,,,,,,,,,
073,001,2023-09-11_17h01.16.888,exp_g2,2022.2.5,MacIntel,62.5,,,,,,,145,l2,t,es,f0u,audio/145.wav,,l2_t_es_f0u_145,,,,,,,image/bag.png,image/flower.png,bag,lshift,,,,,,,lshift,1,2.264,0,46,46,49,1,1,bag,flower,bag,flower,,,,,,,,,,,,,,,,
073,001,2023-09-11_17h01.16.888,exp_g2,2022.2.5,MacIntel,62.5,,,,,,,150,l2,t,es,f0u,audio/150.wav,,l2_t_es_f0u_150,,,,,,,image/cat.png,image/key.png,key,rshift,,,,,,,rshift,1,2.506,0,47,47,54,1,1,key,cat,cat,key,,,,,,,,,,,,,,,,
073,001,2023-09-11_17h01.16.888,exp_g2,2022.2.5,MacIntel,62.5,,,,,,,123,l2,f,sp,na,audio/123.wav,,l2_f_sp_na_123,,,,,,,image/sweater.png,image/cellphone.png,sweater,lshift,,,,,,,lshift,1,2.267,0,48,48,27,1,1,sweater,cellphone,sweater,cellphone,,,,,,,,,,,,,,,,
073,001,2023-09-11_17h01.16.888,exp_g2,2022.2.5,MacIntel,62.5,,,,,,,129,l2,f,sp,na,audio/129.wav,,l2_f_sp_na_129,,,,,,,image/bag.png,image/chair.png,bag,lshift,,,,,,,lshift,1,2.926,0,49,49,33,1,1,bag,chair,bag,chair,,,,,,,,,,,,,,,,
073,001,2023-09-11_17h01.16.888,exp_g2,2022.2.5,MacIntel,62.5,,,,,,,118,l2,f,se,na,audio/118.wav,,l2_f_se_na_118,,,,,,,image/icecream.png,image/donut.png,donut,rshift,,,,,,,rshift,1,2.049,0,50,50,22,1,1,donut,icecream,icecream,donut,,,,,,,,,,,,,,,,
073,001,2023-09-11_17h01.16.888,exp_g2,2022.2.5,MacIntel,62.5,,,,,,,147,l2,t,es,f0u,audio/147.wav,,l2_t_es_f0u_147,,,,,,,image/truck.png,image/book.png,truck,lshift,,,,,,,lshift,1,2.776,0,51,51,51,1,1,truck,book,truck,book,,,,,,,,,,,,,,,,
073,001,2023-09-11_17h01.16.888,exp_g2,2022.2.5,MacIntel,62.5,,,,,,,029,l2,t,es,na,audio/029.wav,,l2_t_es_na_029,,,,,,,image/armchair.png,image/ring.png,armchair,lshift,,,,,,,lshift,1,3.139,0,52,52,43,1,1,armchair,ring,armchair,ring,,,,,,,,,,,,,,,,
073,001,2023-09-11_17h01.16.888,exp_g2,2022.2.5,MacIntel,62.5,,,,,,,113,l2,f,se,na,audio/113.wav,,l2_f_se_na_113,,,,,,,image/loafers.png,image/sneakers.png,loafers,lshift,,,,,,,lshift,1,2.664,0,53,53,17,1,1,loafers,sneakers,loafers,sneakers,,,,,,,,,,,,,,,,
073,001,2023-09-11_17h01.16.888,exp_g2,2022.2.5,MacIntel,62.5,,,,,,,124,l2,f,sp,na,audio/124.wav,,l2_f_sp_na_124,,,,,,,image/bag.png,image/bed.png,bed,rshift,,,,,,,rshift,1,2.266,0,54,54,28,1,1,bed,bag,bag,bed,,,,,,,,,,,,,,,,
073,001,2023-09-11_17h01.16.888,exp_g2,2022.2.5,MacIntel,62.5,,,,,,,,,,,,,,,,,,,,,,,,,,,,,,,,,,,,,,,,,,,,,,,,,,,,,,,,,,,
073,001,2023-09-11_17h01.16.888,exp_g2,2022.2.5,MacIntel,62.5,,,,,,,tr1,lt,tr,en,na,practice_trial/audio/tr1.wav,Where are your kids?,lt_tr_en_na_tr1,-,-,-,-,-,-,image/america.png,image/spain.png,,,,,,,,,,,,,,,,,,,,,,,"[""lshift""]",[1.7060000000000173],0,0,0,0,1,,,,,,,,
073,001,2023-09-11_17h01.16.888,exp_g2,2022.2.5,MacIntel,62.5,,,,,,,tr2,lt,tr,en,na,practice_trial/audio/tr2.wav,Who is buying my car?,lt_tr_en_na_tr2,-,-,-,-,-,-,image/america.png,image/spain.png,,,,,,,,,,,,,,,,,,,,,,,"[""lshift""]",[1.5930000000000177],0,1,1,1,1,,,,,,,,
073,001,2023-09-11_17h01.16.888,exp_g2,2022.2.5,MacIntel,62.5,,,,,,,tr3,lt,tr,sp,na,practice_trial/audio/tr3.wav,¿Dónde está mi perro?,lt_tr_sp_na_tr3,-,-,-,-,-,-,image/america.png,image/spain.png,,,,,,,,,,,,,,,,,,,,,,,"[""rshift""]",[1.8129999999999882],0,2,2,2,1,,,,,,,,
073,001,2023-09-11_17h01.16.888,exp_g2,2022.2.5,MacIntel,62.5,,,,,,,tr4,lt,tr,sp,na,practice_trial/audio/tr4.wav,¿De quién es la bolsa?,lt_tr_sp_na_tr4,-,-,-,-,-,-,image/america.png,image/spain.png,,,,,,,,,,,,,,,,,,,,,,,"[""rshift""]",[1.6650000000000205],0,3,3,3,1,,,,,,,,
073,001,2023-09-11_17h01.16.888,exp_g2,2022.2.5,MacIntel,62.5,,,,,,,tr5,lt,tr,se,na,practice_trial/audio/tr5.wav,¿Dónde encontraste sus donuts?,lt_tr_se_na_tr5,-,-,-,-,-,-,image/america.png,image/spain.png,,,,,,,,,,,,,,,,,,,,,,,"[""rshift""]",[2.1579999999999586],0,4,4,4,1,,,,,,,,
073,001,2023-09-11_17h01.16.888,exp_g2,2022.2.5,MacIntel,62.5,,,,,,,tr6,lt,tr,se,na,practice_trial/audio/tr6.wav,¿Cuándo compraste tu sweater?,lt_tr_se_na_tr6,-,-,-,-,-,-,image/america.png,image/spain.png,,,,,,,,,,,,,,,,,,,,,,,"[""rshift""]",[1.634999999999991],0,5,5,5,1,,,,,,,,
073,001,2023-09-11_17h01.16.888,exp_g2,2022.2.5,MacIntel,62.5,,,,,,,tr7,lt,tr,es,na,practice_trial/audio/tr7.wav,Why do you have my camisa?,lt_tr_es_na_tr7,-,-,-,-,-,-,image/america.png,image/spain.png,,,,,,,,,,,,,,,,,,,,,,,"[""lshift"",""rshift""]","[1.6180000000000518,2.194000000000017]",0,6,6,6,1,,,,,,,,
073,001,2023-09-11_17h01.16.888,exp_g2,2022.2.5,MacIntel,62.5,,,,,,,tr8,lt,tr,es,na,practice_trial/audio/tr8.wav,Where did you find his chanclas?,lt_tr_es_na_tr8,-,-,-,-,-,-,image/america.png,image/spain.png,,,,,,,,,,,,,,,,,,,,,,,"[""lshift"",""rshift""]","[1.3280000000000314,2.0920000000000414]",0,7,7,7,1,,,,,,,,
073,001,2023-09-11_17h01.16.888,exp_g2,2022.2.5,MacIntel,62.5,,,,,,,,,,,,,,,,,,,,,,,,,,,,,,,,,,,,,,,,,,,,,,,,,,,,,,,,,,,
073,001,2023-09-11_17h01.16.888,exp_g2,2022.2.5,MacIntel,62.5,,,,,,,073,l1,f,en,na,audio/073.wav,,l1_f_en_na_073,,,,,,,image/america.png,image/spain.png,,,,,,,,,,,,,,,,,2,america,spain,,,,,,,,,,,"[""lshift""]",[1.3419999999999845],0,0,0,12,1,
073,001,2023-09-11_17h01.16.888,exp_g2,2022.2.5,MacIntel,62.5,,,,,,,018,l1,t,es,na,audio/018.wav,,l1_t_es_na_018,,,,,,,image/america.png,image/spain.png,,,,,,,,,,,,,,,,,2,america,spain,,,,,,,,,,,"[""lshift"",""rshift""]","[1.5810000000000173,2.51400000000001]",0,1,1,42,1,1
073,001,2023-09-11_17h01.16.888,exp_g2,2022.2.5,MacIntel,62.5,,,,,,,153,l1,t,es,f0c,audio/153.wav,,l1_t_es_f0c_153,,,,,,,image/america.png,image/spain.png,,,,,,,,,,,,,,,,,2,america,spain,,,,,,,,,,,"[""lshift"",""rshift""]","[1.8120000000000118,2.329999999999984]",0,2,2,47,1,1
073,001,2023-09-11_17h01.16.888,exp_g2,2022.2.5,MacIntel,62.5,,,,,,,071,l1,f,en,na,audio/071.wav,,l1_f_en_na_071,,,,,,,image/america.png,image/spain.png,,,,,,,,,,,,,,,,,2,america,spain,,,,,,,,,,,"[""lshift""]",[1.5459999999999923],0,3,3,10,1,
073,001,2023-09-11_17h01.16.888,exp_g2,2022.2.5,MacIntel,62.5,,,,,,,087,l1,f,sp,na,audio/087.wav,,l1_f_sp_na_087,,,,,,,image/america.png,image/spain.png,,,,,,,,,,,,,,,,,2,america,spain,,,,,,,,,,,"[""rshift""]",[1.8909999999999627],0,4,4,26,1,
073,001,2023-09-11_17h01.16.888,exp_g2,2022.2.5,MacIntel,62.5,,,,,,,015,l1,t,es,na,audio/015.wav,,l1_t_es_na_015,,,,,,,image/america.png,image/spain.png,,,,,,,,,,,,,,,,,2,america,spain,,,,,,,,,,,"[""lshift"",""rshift""]","[1.5090000000000146,2.2690000000000055]",0,5,5,39,1,1
073,001,2023-09-11_17h01.16.888,exp_g2,2022.2.5,MacIntel,62.5,,,,,,,088,l1,f,sp,na,audio/088.wav,,l1_f_sp_na_088,,,,,,,image/america.png,image/spain.png,,,,,,,,,,,,,,,,,2,america,spain,,,,,,,,,,,"[""rshift""]",[1.724999999999966],0,6,6,27,1,
073,001,2023-09-11_17h01.16.888,exp_g2,2022.2.5,MacIntel,62.5,,,,,,,154,l1,t,es,f0c,audio/154.wav,,l1_t_es_f0c_154,,,,,,,image/america.png,image/spain.png,,,,,,,,,,,,,,,,,2,america,spain,,,,,,,,,,,"[""lshift"",""rshift""]","[1.660000000000025,2.7560000000000286]",0,7,7,48,1,1
073,001,2023-09-11_17h01.16.888,exp_g2,2022.2.5,MacIntel,62.5,,,,,,,062,l1,f,en,na,audio/062.wav,,l1_f_en_na_062,,,,,,,image/america.png,image/spain.png,,,,,,,,,,,,,,,,,2,america,spain,,,,,,,,,,,"[""lshift""]",[1.7069999999999936],0,8,8,1,1,
073,001,2023-09-11_17h01.16.888,exp_g2,2022.2.5,MacIntel,62.5,,,,,,,065,l1,f,en,na,audio/065.wav,,l1_f_en_na_065,,,,,,,image/america.png,image/spain.png,,,,,,,,,,,,,,,,,2,america,spain,,,,,,,,,,,"[""lshift""]",[1.4309999999999832],0,9,9,4,1,
073,001,2023-09-11_17h01.16.888,exp_g2,2022.2.5,MacIntel,62.5,,,,,,,156,l1,t,es,f0c,audio/156.wav,,l1_t_es_f0c_156,,,,,,,image/america.png,image/spain.png,,,,,,,,,,,,,,,,,2,america,spain,,,,,,,,,,,"[""lshift"",""rshift""]","[1.579999999999984,2.450999999999965]",0,10,10,50,1,1
073,001,2023-09-11_17h01.16.888,exp_g2,2022.2.5,MacIntel,62.5,,,,,,,079,l1,f,se,na,audio/079.wav,,l1_f_se_na_079,,,,,,,image/america.png,image/spain.png,,,,,,,,,,,,,,,,,2,america,spain,,,,,,,,,,,"[""rshift""]",[2.8659999999999854],0,11,11,18,1,1
073,001,2023-09-11_17h01.16.888,exp_g2,2022.2.5,MacIntel,62.5,,,,,,,012,l1,t,es,na,audio/012.wav,,l1_t_es_na_012,,,,,,,image/america.png,image/spain.png,,,,,,,,,,,,,,,,,2,america,spain,,,,,,,,,,,"[""lshift"",""rshift""]","[1.507000000000005,2.7889999999999873]",0,12,12,36,1,1
073,001,2023-09-11_17h01.16.888,exp_g2,2022.2.5,MacIntel,62.5,,,,,,,076,l1,f,se,na,audio/076.wav,,l1_f_se_na_076,,,,,,,image/america.png,image/spain.png,,,,,,,,,,,,,,,,,2,america,spain,,,,,,,,,,,"[""rshift""]",[2.27800000000002],0,13,13,15,1,1
073,001,2023-09-11_17h01.16.888,exp_g2,2022.2.5,MacIntel,62.5,,,,,,,068,l1,f,en,na,audio/068.wav,,l1_f_en_na_068,,,,,,,image/america.png,image/spain.png,,,,,,,,,,,,,,,,,2,america,spain,,,,,,,,,,,"[""lshift""]",[1.7550000000000523],0,14,14,7,1,
073,001,2023-09-11_17h01.16.888,exp_g2,2022.2.5,MacIntel,62.5,,,,,,,155,l1,t,es,f0c,audio/155.wav,,l1_t_es_f0c_155,,,,,,,image/america.png,image/spain.png,,,,,,,,,,,,,,,,,2,america,spain,,,,,,,,,,,"[""lshift"",""rshift""]","[1.579999999999984,2.430999999999983]",0,15,15,49,1,1
073,001,2023-09-11_17h01.16.888,exp_g2,2022.2.5,MacIntel,62.5,,,,,,,063,l1,f,en,na,audio/063.wav,,l1_f_en_na_063,,,,,,,image/america.png,image/spain.png,,,,,,,,,,,,,,,,,2,america,spain,,,,,,,,,,,"[""lshift""]",[1.4379999999999882],0,16,16,2,1,
073,001,2023-09-11_17h01.16.888,exp_g2,2022.2.5,MacIntel,62.5,,,,,,,090,l1,f,sp,na,audio/090.wav,,l1_f_sp_na_090,,,,,,,image/america.png,image/spain.png,,,,,,,,,,,,,,,,,2,america,spain,,,,,,,,,,,"[""rshift""]",[1.886000000000024],0,17,17,29,1,
073,001,2023-09-11_17h01.16.888,exp_g2,2022.2.5,MacIntel,62.5,,,,,,,084,l1,f,se,na,audio/084.wav,,l1_f_se_na_084,,,,,,,image/america.png,image/spain.png,,,,,,,,,,,,,,,,,2,america,spain,,,,,,,,,,,"[""rshift"",""lshift""]","[1.4850000000000136,3.3380000000000223]",0,18,18,23,1,1
073,001,2023-09-11_17h01.16.888,exp_g2,2022.2.5,MacIntel,62.5,,,,,,,011,l1,t,es,na,audio/011.wav,,l1_t_es_na_011,,,,,,,image/america.png,image/spain.png,,,,,,,,,,,,,,,,,2,america,spain,,,,,,,,,,,"[""lshift""]",[1.5299999999999727],0,19,19,35,1,1
073,001,2023-09-11_17h01.16.888,exp_g2,2022.2.5,MacIntel,62.5,,,,,,,092,l1,f,sp,na,audio/092.wav,,l1_f_sp_na_092,,,,,,,image/america.png,image/spain.png,,,,,,,,,,,,,,,,,2,america,spain,,,,,,,,,,,"[""rshift""]",[1.5629999999999882],0,20,20,31,1,
073,001,2023-09-11_17h01.16.888,exp_g2,2022.2.5,MacIntel,62.5,,,,,,,016,l1,t,es,na,audio/016.wav,,l1_t_es_na_016,,,,,,,image/america.png,image/spain.png,,,,,,,,,,,,,,,,,2,america,spain,,,,,,,,,,,"[""lshift"",""rshift""]","[1.538000000000011,3.393000000000029]",0,21,21,40,1,1
073,001,2023-09-11_17h01.16.888,exp_g2,2022.2.5,MacIntel,62.5,,,,,,,089,l1,f,sp,na,audio/089.wav,,l1_f_sp_na_089,,,,,,,image/america.png,image/spain.png,,,,,,,,,,,,,,,,,2,america,spain,,,,,,,,,,,"[""rshift""]",[1.454999999999984],0,22,22,28,1,
073,001,2023-09-11_17h01.16.888,exp_g2,2022.2.5,MacIntel,62.5,,,,,,,095,l1,f,sp,na,audio/095.wav,,l1_f_sp_na_095,,,,,,,image/america.png,image/spain.png,,,,,,,,,,,,,,,,,2,america,spain,,,,,,,,,,,"[""rshift""]",[1.6289999999999623],0,23,23,34,1,
073,001,2023-09-11_17h01.16.888,exp_g2,2022.2.5,MacIntel,62.5,,,,,,,069,l1,f,en,na,audio/069.wav,,l1_f_en_na_069,,,,,,,image/america.png,image/spain.png,,,,,,,,,,,,,,,,,2,america,spain,,,,,,,,,,,"[""lshift""]",[1.8079999999999927],0,24,24,8,1,
073,001,2023-09-11_17h01.16.888,exp_g2,2022.2.5,MacIntel,62.5,,,,,,,094,l1,f,sp,na,audio/094.wav,,l1_f_sp_na_094,,,,,,,image/america.png,image/spain.png,,,,,,,,,,,,,,,,,2,america,spain,,,,,,,,,,,"[""rshift""]",[1.7420000000000186],0,25,25,33,1,
073,001,2023-09-11_17h01.16.888,exp_g2,2022.2.5,MacIntel,62.5,,,,,,,067,l1,f,en,na,audio/067.wav,,l1_f_en_na_067,,,,,,,image/america.png,image/spain.png,,,,,,,,,,,,,,,,,2,america,spain,,,,,,,,,,,"[""lshift""]",[1.808999999999969],0,26,26,6,1,
073,001,2023-09-11_17h01.16.888,exp_g2,2022.2.5,MacIntel,62.5,,,,,,,020,l1,t,es,na,audio/020.wav,,l1_t_es_na_020,,,,,,,image/america.png,image/spain.png,,,,,,,,,,,,,,,,,2,america,spain,,,,,,,,,,,"[""rshift""]",[2.677000000000021],0,27,27,44,1,1
073,001,2023-09-11_17h01.16.888,exp_g2,2022.2.5,MacIntel,62.5,,,,,,,158,l1,t,es,f0c,audio/158.wav,,l1_t_es_f0c_158,,,,,,,image/america.png,image/spain.png,,,,,,,,,,,,,,,,,2,america,spain,,,,,,,,,,,"[""lshift""]",[1.7210000000000036],0,28,28,52,1,1
073,001,2023-09-11_17h01.16.888,exp_g2,2022.2.5,MacIntel,62.5,,,,,,,086,l1,f,sp,na,audio/086.wav,,l1_f_sp_na_086,,,,,,,image/america.png,image/spain.png,,,,,,,,,,,,,,,,,2,america,spain,,,,,,,,,,,"[""rshift""]",[2.3630000000000564],0,29,29,25,1,
073,001,2023-09-11_17h01.16.888,exp_g2,2022.2.5,MacIntel,62.5,,,,,,,082,l1,f,se,na,audio/082.wav,,l1_f_se_na_082,,,,,,,image/america.png,image/spain.png,,,,,,,,,,,,,,,,,2,america,spain,,,,,,,,,,,"[""rshift""]",[1.6090000000000373],0,30,30,21,1,1
073,001,2023-09-11_17h01.16.888,exp_g2,2022.2.5,MacIntel,62.5,,,,,,,160,l1,t,es,f0c,audio/160.wav,,l1_t_es_f0c_160,,,,,,,image/america.png,image/spain.png,,,,,,,,,,,,,,,,,2,america,spain,,,,,,,,,,,"[""rshift""]",[1.907000000000039],0,31,31,54,1,1
073,001,2023-09-11_17h01.16.888,exp_g2,2022.2.5,MacIntel,62.5,,,,,,,085,l1,f,se,na,audio/085.wav,,l1_f_se_na_085,,,,,,,image/america.png,image/spain.png,,,,,,,,,,,,,,,,,2,america,spain,,,,,,,,,,,"[""rshift""]",[2.0580000000001064],0,32,32,24,1,1
073,001,2023-09-11_17h01.16.888,exp_g2,2022.2.5,MacIntel,62.5,,,,,,,014,l1,t,es,na,audio/014.wav,,l1_t_es_na_014,,,,,,,image/america.png,image/spain.png,,,,,,,,,,,,,,,,,2,america,spain,,,,,,,,,,,"[""lshift""]",[1.629000000000019],0,33,33,38,1,1
073,001,2023-09-11_17h01.16.888,exp_g2,2022.2.5,MacIntel,62.5,,,,,,,159,l1,t,es,f0c,audio/159.wav,,l1_t_es_f0c_159,,,,,,,image/america.png,image/spain.png,,,,,,,,,,,,,,,,,2,america,spain,,,,,,,,,,,"[""lshift"",""rshift""]","[1.822999999999979,2.8309999999999036]",0,34,34,53,1,1
073,001,2023-09-11_17h01.16.888,exp_g2,2022.2.5,MacIntel,62.5,,,,,,,080,l1,f,se,na,audio/080.wav,,l1_f_se_na_080,,,,,,,image/america.png,image/spain.png,,,,,,,,,,,,,,,,,2,america,spain,,,,,,,,,,,"[""rshift""]",[1.8349999999999227],0,35,35,19,1,1
073,001,2023-09-11_17h01.16.888,exp_g2,2022.2.5,MacIntel,62.5,,,,,,,074,l1,f,en,na,audio/074.wav,,l1_f_en_na_074,,,,,,,image/america.png,image/spain.png,,,,,,,,,,,,,,,,,2,america,spain,,,,,,,,,,,"[""lshift""]",[1.6380000000000337],0,36,36,13,1,
073,001,2023-09-11_17h01.16.888,exp_g2,2022.2.5,MacIntel,62.5,,,,,,,091,l1,f,sp,na,audio/091.wav,,l1_f_sp_na_091,,,,,,,image/america.png,image/spain.png,,,,,,,,,,,,,,,,,2,america,spain,,,,,,,,,,,"[""rshift""]",[1.816000000000031],0,37,37,30,1,
073,001,2023-09-11_17h01.16.888,exp_g2,2022.2.5,MacIntel,62.5,,,,,,,064,l1,f,en,na,audio/064.wav,,l1_f_en_na_064,,,,,,,image/america.png,image/spain.png,,,,,,,,,,,,,,,,,2,america,spain,,,,,,,,,,,"[""lshift""]",[1.9560000000000173],0,38,38,3,1,
073,001,2023-09-11_17h01.16.888,exp_g2,2022.2.5,MacIntel,62.5,,,,,,,075,l1,f,en,na,audio/075.wav,,l1_f_en_na_075,,,,,,,image/america.png,image/spain.png,,,,,,,,,,,,,,,,,2,america,spain,,,,,,,,,,,"[""lshift""]",[1.9629999999999654],0,39,39,14,1,
073,001,2023-09-11_17h01.16.888,exp_g2,2022.2.5,MacIntel,62.5,,,,,,,017,l1,t,es,na,audio/017.wav,,l1_t_es_na_017,,,,,,,image/america.png,image/spain.png,,,,,,,,,,,,,,,,,2,america,spain,,,,,,,,,,,"[""lshift"",""rshift""]","[2.366999999999962,2.8029999999999973]",0,40,40,41,1,1
073,001,2023-09-11_17h01.16.888,exp_g2,2022.2.5,MacIntel,62.5,,,,,,,152,l1,t,es,f0c,audio/152.wav,,l1_t_es_f0c_152,,,,,,,image/america.png,image/spain.png,,,,,,,,,,,,,,,,,2,america,spain,,,,,,,,,,,"[""lshift"",""rshift""]","[1.7139999999999418,2.4489999999999554]",0,41,41,46,1,1
073,001,2023-09-11_17h01.16.888,exp_g2,2022.2.5,MacIntel,62.5,,,,,,,070,l1,f,en,na,audio/070.wav,,l1_f_en_na_070,,,,,,,image/america.png,image/spain.png,,,,,,,,,,,,,,,,,2,america,spain,,,,,,,,,,,"[""lshift""]",[2.241999999999962],0,42,42,9,1,
073,001,2023-09-11_17h01.16.888,exp_g2,2022.2.5,MacIntel,62.5,,,,,,,151,l1,t,es,f0c,audio/151.wav,,l1_t_es_f0c_151,,,,,,,image/america.png,image/spain.png,,,,,,,,,,,,,,,,,2,america,spain,,,,,,,,,,,"[""lshift"",""rshift""]","[1.5960000000000036,2.2210000000000036]",0,43,43,45,1,1
073,001,2023-09-11_17h01.16.888,exp_g2,2022.2.5,MacIntel,62.5,,,,,,,066,l1,f,en,na,audio/066.wav,,l1_f_en_na_066,,,,,,,image/america.png,image/spain.png,,,,,,,,,,,,,,,,,2,america,spain,,,,,,,,,,,"[""lshift""]",[1.5049999999999955],0,44,44,5,1,
073,001,2023-09-11_17h01.16.888,exp_g2,2022.2.5,MacIntel,62.5,,,,,,,072,l1,f,en,na,audio/072.wav,,l1_f_en_na_072,,,,,,,image/america.png,image/spain.png,,,,,,,,,,,,,,,,,2,america,spain,,,,,,,,,,,"[""lshift""]",[1.6609999999999445],0,45,45,11,1,
073,001,2023-09-11_17h01.16.888,exp_g2,2022.2.5,MacIntel,62.5,,,,,,,081,l1,f,se,na,audio/081.wav,,l1_f_se_na_081,,,,,,,image/america.png,image/spain.png,,,,,,,,,,,,,,,,,2,america,spain,,,,,,,,,,,"[""rshift""]",[1.47199999999998],0,46,46,20,1,1
073,001,2023-09-11_17h01.16.888,exp_g2,2022.2.5,MacIntel,62.5,,,,,,,061,l1,f,en,na,audio/061.wav,,l1_f_en_na_061,,,,,,,image/america.png,image/spain.png,,,,,,,,,,,,,,,,,2,america,spain,,,,,,,,,,,"[""lshift""]",[1.747000000000071],0,47,47,0,1,
073,001,2023-09-11_17h01.16.888,exp_g2,2022.2.5,MacIntel,62.5,,,,,,,077,l1,f,se,na,audio/077.wav,,l1_f_se_na_077,,,,,,,image/america.png,image/spain.png,,,,,,,,,,,,,,,,,2,america,spain,,,,,,,,,,,"[""rshift""]",[1.8759999999999764],0,48,48,16,1,1
073,001,2023-09-11_17h01.16.888,exp_g2,2022.2.5,MacIntel,62.5,,,,,,,078,l1,f,se,na,audio/078.wav,,l1_f_se_na_078,,,,,,,image/america.png,image/spain.png,,,,,,,,,,,,,,,,,2,america,spain,,,,,,,,,,,"[""rshift""]",[1.6879999999999882],0,49,49,17,1,1
073,001,2023-09-11_17h01.16.888,exp_g2,2022.2.5,MacIntel,62.5,,,,,,,157,l1,t,es,f0c,audio/157.wav,,l1_t_es_f0c_157,,,,,,,image/america.png,image/spain.png,,,,,,,,,,,,,,,,,2,america,spain,,,,,,,,,,,"[""lshift"",""rshift""]","[1.7039999999999509,2.34699999999998]",0,50,50,51,1,1
073,001,2023-09-11_17h01.16.888,exp_g2,2022.2.5,MacIntel,62.5,,,,,,,093,l1,f,sp,na,audio/093.wav,,l1_f_sp_na_093,,,,,,,image/america.png,image/spain.png,,,,,,,,,,,,,,,,,2,america,spain,,,,,,,,,,,"[""lshift"",""rshift""]","[1.4790000000000418,1.7530000000000427]",0,51,51,32,1,
073,001,2023-09-11_17h01.16.888,exp_g2,2022.2.5,MacIntel,62.5,,,,,,,013,l1,t,es,na,audio/013.wav,,l1_t_es_na_013,,,,,,,image/america.png,image/spain.png,,,,,,,,,,,,,,,,,2,america,spain,,,,,,,,,,,"[""lshift"",""rshift""]","[1.8260000000000218,2.7970000000000255]",0,52,52,37,1,1
073,001,2023-09-11_17h01.16.888,exp_g2,2022.2.5,MacIntel,62.5,,,,,,,019,l1,t,es,na,audio/019.wav,,l1_t_es_na_019,,,,,,,image/america.png,image/spain.png,,,,,,,,,,,,,,,,,2,america,spain,,,,,,,,,,,"[""lshift"",""rshift""]","[1.7409999999999854,3.0539999999999736]",0,53,53,43,1,1
073,001,2023-09-11_17h01.16.888,exp_g2,2022.2.5,MacIntel,62.5,,,,,,,083,l1,f,se,na,audio/083.wav,,l1_f_se_na_083,,,,,,,image/america.png,image/spain.png,,,,,,,,,,,,,,,,,2,america,spain,,,,,,,,,,,"[""rshift""]",[1.8900000000001],0,54,54,22,1,1
073,001,2023-09-11_17h01.16.888,exp_g2,2022.2.5,MacIntel,62.5,,,,,,,,,,,,,,,,,,,,,,,,,,,,,,,,,,,,,,,,,,,,,,,,,,,,,,,,,,,
