participant,session,date,expName,psychopyVersion,OS,frameRate,exp1_trial_key.keys,exp1_trial_loop.thisRepN,exp1_trial_loop.thisTrialN,exp1_trial_loop.thisN,exp1_trial_loop.thisIndex,exp1_trial_loop.ran,num,list,cond,lang,type,sound_dir,phr,sent_code,mat,mat_num,emb_num,emb,cut,mat_f0_c,left,right,correct_img,correct_key,exp1_trial_key.rt,exp1_retrial.thisRepN,exp1_retrial.thisTrialN,exp1_retrial.thisN,exp1_retrial.thisIndex,exp1_retrial.ran,exp1_key.keys,exp1_key.corr,exp1_key.rt,exp1_loop.thisRepN,exp1_loop.thisTrialN,exp1_loop.thisN,exp1_loop.thisIndex,exp1_loop.ran,exp_num,image,image_alt,left_img,right_img,image_dir,exp2_trial_key.keys,exp2_trial_key.rt,exp2_retrial.thisRepN,exp2_retrial.thisTrialN,exp2_retrial.thisN,exp2_retrial.thisIndex,exp2_retrial.ran,exp2_key.keys,exp2_key.rt,exp2_loop.thisRepN,exp2_loop.thisTrialN,exp2_loop.thisN,exp2_loop.thisIndex,exp2_loop.ran,cs
042,001,2023-09-29_14h14.23.677,exp_g1,2022.2.5,MacIntel,60.0024001,,,,,,,,,,,,,,,,,,,,,,,,,,,,,,,,,,,,,,,,,,,,,,,,,,,,,,,,,,,
042,001,2023-09-29_14h14.23.677,exp_g1,2022.2.5,MacIntel,60.0024001,,0,0,0,0,1,tr1,lt,tr,en,na,practice_trial/audio/tr1.wav,Where are your kids?,lt_tr_en_na_tr1,-,-,-,-,-,-,image/kids.png,image/plates.png,kids,lshift,,,,,,,,,,,,,,,,,,,,,,,,,,,,,,,,,,,
042,001,2023-09-29_14h14.23.677,exp_g1,2022.2.5,MacIntel,60.0024001,"[""rshift""]",0,1,1,1,1,tr2,lt,tr,en,na,practice_trial/audio/tr2.wav,Who is buying my car?,lt_tr_en_na_tr2,-,-,-,-,-,-,image/bag.png,image/car.png,car,rshift,[3.0080000000000098],,,,,,,,,,,,,,,,,,,,,,,,,,,,,,,,,,
042,001,2023-09-29_14h14.23.677,exp_g1,2022.2.5,MacIntel,60.0024001,"[""lshift""]",0,2,2,2,1,tr3,lt,tr,sp,na,practice_trial/audio/tr3.wav,¿Dónde está mi perro?,lt_tr_sp_na_tr3,-,-,-,-,-,-,image/dog.png,image/grandma.png,dog,lshift,[2.472999999999999],,,,,,,,,,,,,,,,,,,,,,,,,,,,,,,,,,
042,001,2023-09-29_14h14.23.677,exp_g1,2022.2.5,MacIntel,60.0024001,"[""rshift""]",0,3,3,3,1,tr4,lt,tr,sp,na,practice_trial/audio/tr4.wav,¿De quién es la bolsa?,lt_tr_sp_na_tr4,-,-,-,-,-,-,image/shirt.png,image/bag.png,bag,rshift,[3.326299999997019],,,,,,,,,,,,,,,,,,,,,,,,,,,,,,,,,,
042,001,2023-09-29_14h14.23.677,exp_g1,2022.2.5,MacIntel,60.0024001,"[""lshift""]",0,4,4,4,1,tr5,lt,tr,se,na,practice_trial/audio/tr5.wav,¿Dónde encontraste sus donuts?,lt_tr_se_na_tr5,-,-,-,-,-,-,image/donut.png,image/cups.png,donut,lshift,[3.3254000000059563],,,,,,,,,,,,,,,,,,,,,,,,,,,,,,,,,,
042,001,2023-09-29_14h14.23.677,exp_g1,2022.2.5,MacIntel,60.0024001,"[""rshift""]",0,5,5,5,1,tr6,lt,tr,se,na,practice_trial/audio/tr6.wav,¿Cuándo compraste tu sweater?,lt_tr_se_na_tr6,-,-,-,-,-,-,image/chair.png,image/sweater.png,sweater,rshift,[2.8783999999910606],,,,,,,,,,,,,,,,,,,,,,,,,,,,,,,,,,
042,001,2023-09-29_14h14.23.677,exp_g1,2022.2.5,MacIntel,60.0024001,"[""lshift""]",0,6,6,6,1,tr7,lt,tr,es,na,practice_trial/audio/tr7.wav,Why do you have my camisa?,lt_tr_es_na_tr7,-,-,-,-,-,-,image/shirt.png,image/wallet.png,shirt,lshift,[3.110299999997011],,,,,,,,,,,,,,,,,,,,,,,,,,,,,,,,,,
042,001,2023-09-29_14h14.23.677,exp_g1,2022.2.5,MacIntel,60.0024001,"[""rshift""]",0,7,7,7,1,tr8,lt,tr,es,na,practice_trial/audio/tr8.wav,Where did you find his chanclas?,lt_tr_es_na_tr8,-,-,-,-,-,-,image/key.png,image/flipflops.png,flipflops,rshift,[2.6077000000029784],,,,,,,,,,,,,,,,,,,,,,,,,,,,,,,,,,
042,001,2023-09-29_14h14.23.677,exp_g1,2022.2.5,MacIntel,60.0024001,,,,,,,,,,,,,,,,,,,,,,,,,,0,0,0,0,1,,,,,,,,,,,,,,,,,,,,,,,,,,,,,
042,001,2023-09-29_14h14.23.677,exp_g1,2022.2.5,MacIntel,60.0024001,"[""lshift""]",0,0,0,0,1,tr1,lt,tr,en,na,practice_trial/audio/tr1.wav,Where are your kids?,lt_tr_en_na_tr1,-,-,-,-,-,-,image/kids.png,image/plates.png,kids,lshift,[2.6663999999910573],,,,,,,,,,,,,,,,,,,,,,,,,,,,,,,,,,
042,001,2023-09-29_14h14.23.677,exp_g1,2022.2.5,MacIntel,60.0024001,"[""rshift""]",0,1,1,1,1,tr2,lt,tr,en,na,practice_trial/audio/tr2.wav,Who is buying my car?,lt_tr_en_na_tr2,-,-,-,-,-,-,image/bag.png,image/car.png,car,rshift,[1.7787999999970054],,,,,,,,,,,,,,,,,,,,,,,,,,,,,,,,,,
042,001,2023-09-29_14h14.23.677,exp_g1,2022.2.5,MacIntel,60.0024001,"[""lshift""]",0,2,2,2,1,tr3,lt,tr,sp,na,practice_trial/audio/tr3.wav,¿Dónde está mi perro?,lt_tr_sp_na_tr3,-,-,-,-,-,-,image/dog.png,image/grandma.png,dog,lshift,[1.5902000000029943],,,,,,,,,,,,,,,,,,,,,,,,,,,,,,,,,,
042,001,2023-09-29_14h14.23.677,exp_g1,2022.2.5,MacIntel,60.0024001,"[""rshift""]",0,3,3,3,1,tr4,lt,tr,sp,na,practice_trial/audio/tr4.wav,¿De quién es la bolsa?,lt_tr_sp_na_tr4,-,-,-,-,-,-,image/shirt.png,image/bag.png,bag,rshift,[2.2880999999940173],,,,,,,,,,,,,,,,,,,,,,,,,,,,,,,,,,
042,001,2023-09-29_14h14.23.677,exp_g1,2022.2.5,MacIntel,60.0024001,"[""lshift""]",0,4,4,4,1,tr5,lt,tr,se,na,practice_trial/audio/tr5.wav,¿Dónde encontraste sus donuts?,lt_tr_se_na_tr5,-,-,-,-,-,-,image/donut.png,image/cups.png,donut,lshift,[2.1082999999970014],,,,,,,,,,,,,,,,,,,,,,,,,,,,,,,,,,
042,001,2023-09-29_14h14.23.677,exp_g1,2022.2.5,MacIntel,60.0024001,"[""rshift""]",0,5,5,5,1,tr6,lt,tr,se,na,practice_trial/audio/tr6.wav,¿Cuándo compraste tu sweater?,lt_tr_se_na_tr6,-,-,-,-,-,-,image/chair.png,image/sweater.png,sweater,rshift,[2.025999999999982],,,,,,,,,,,,,,,,,,,,,,,,,,,,,,,,,,
042,001,2023-09-29_14h14.23.677,exp_g1,2022.2.5,MacIntel,60.0024001,"[""lshift""]",0,6,6,6,1,tr7,lt,tr,es,na,practice_trial/audio/tr7.wav,Why do you have my camisa?,lt_tr_es_na_tr7,-,-,-,-,-,-,image/shirt.png,image/wallet.png,shirt,lshift,[2.0105999999940423],,,,,,,,,,,,,,,,,,,,,,,,,,,,,,,,,,
042,001,2023-09-29_14h14.23.677,exp_g1,2022.2.5,MacIntel,60.0024001,"[""rshift""]",0,7,7,7,1,tr8,lt,tr,es,na,practice_trial/audio/tr8.wav,Where did you find his chanclas?,lt_tr_es_na_tr8,-,-,-,-,-,-,image/key.png,image/flipflops.png,flipflops,rshift,[1.9446999999880745],,,,,,,,,,,,,,,,,,,,,,,,,,,,,,,,,,
042,001,2023-09-29_14h14.23.677,exp_g1,2022.2.5,MacIntel,60.0024001,,,,,,,,,,,,,,,,,,,,,,,,,,,,,,,,,,,,,,,,,,,,,,,,,,,,,,,,,,,
042,001,2023-09-29_14h14.23.677,exp_g1,2022.2.5,MacIntel,60.0024001,,,,,,,011,l1,t,es,na,audio/011.wav,,l1_t_es_na_011,,,,,,,image/armchair.png,image/bed.png,armchair,lshift,,,,,,,lshift,1,3.3065,0,0,0,35,1,1,armchair,bed,armchair,bed,,,,,,,,,,,,,,,,
042,001,2023-09-29_14h14.23.677,exp_g1,2022.2.5,MacIntel,60.0024001,,,,,,,093,l1,f,sp,na,audio/093.wav,,l1_f_sp_na_093,,,,,,,image/boy.png,image/book.png,book,rshift,,,,,,,rshift,1,1.7566,0,1,1,32,1,1,book,boy,boy,book,,,,,,,,,,,,,,,,
042,001,2023-09-29_14h14.23.677,exp_g1,2022.2.5,MacIntel,60.0024001,,,,,,,094,l1,f,sp,na,audio/094.wav,,l1_f_sp_na_094,,,,,,,image/beer.png,image/horchata.png,beer,lshift,,,,,,,lshift,1,2.4463,0,2,2,33,1,1,beer,horchata,beer,horchata,,,,,,,,,,,,,,,,
042,001,2023-09-29_14h14.23.677,exp_g1,2022.2.5,MacIntel,60.0024001,,,,,,,018,l1,t,es,na,audio/018.wav,,l1_t_es_na_018,,,,,,,image/cups.png,image/napkins.png,napkins,rshift,,,,,,,rshift,1,2.3447,0,3,3,42,1,1,napkins,cups,cups,napkins,,,,,,,,,,,,,,,,
042,001,2023-09-29_14h14.23.677,exp_g1,2022.2.5,MacIntel,60.0024001,,,,,,,016,l1,t,es,na,audio/016.wav,,l1_t_es_na_016,,,,,,,image/flipflops.png,image/bag.png,bag,rshift,,,,,,,rshift,1,2.9477,0,4,4,40,1,1,bag,flipflops,flipflops,bag,,,,,,,,,,,,,,,,
042,001,2023-09-29_14h14.23.677,exp_g1,2022.2.5,MacIntel,60.0024001,,,,,,,087,l1,f,sp,na,audio/087.wav,,l1_f_sp_na_087,,,,,,,image/desk.png,image/bed.png,bed,rshift,,,,,,,rshift,1,1.8919,0,5,5,26,1,1,bed,desk,desk,bed,,,,,,,,,,,,,,,,
042,001,2023-09-29_14h14.23.677,exp_g1,2022.2.5,MacIntel,60.0024001,,,,,,,067,l1,f,en,na,audio/067.wav,,l1_f_en_na_067,,,,,,,image/beer.png,image/glasses.png,glasses,rshift,,,,,,,rshift,1,2.1113,0,6,6,6,1,1,glasses,beer,beer,glasses,,,,,,,,,,,,,,,,
042,001,2023-09-29_14h14.23.677,exp_g1,2022.2.5,MacIntel,60.0024001,,,,,,,136,l1,t,es,f0u,audio/136.wav,,l1_t_es_f0u_136,,,,,,,image/city.png,image/village.png,village,rshift,,,,,,,rshift,1,3.5679,0,7,7,50,1,1,village,city,city,village,,,,,,,,,,,,,,,,
042,001,2023-09-29_14h14.23.677,exp_g1,2022.2.5,MacIntel,60.0024001,,,,,,,068,l1,f,en,na,audio/068.wav,,l1_f_en_na_068,,,,,,,image/socks.png,image/book.png,socks,lshift,,,,,,,lshift,1,2.2376,0,8,8,7,1,1,socks,book,socks,book,,,,,,,,,,,,,,,,
042,001,2023-09-29_14h14.23.677,exp_g1,2022.2.5,MacIntel,60.0024001,,,,,,,076,l1,f,se,na,audio/076.wav,,l1_f_se_na_076,,,,,,,image/hotdog.png,image/burger.png,hotdog,lshift,,,,,,,lshift,1,2.0554,0,9,9,15,1,1,hotdog,burger,hotdog,burger,,,,,,,,,,,,,,,,
042,001,2023-09-29_14h14.23.677,exp_g1,2022.2.5,MacIntel,60.0024001,,,,,,,080,l1,f,se,na,audio/080.wav,,l1_f_se_na_080,,,,,,,image/mouse.png,image/rat.png,mouse,lshift,,,,,,,lshift,1,3.9719,0,10,10,19,1,1,mouse,rat,mouse,rat,,,,,,,,,,,,,,,,
042,001,2023-09-29_14h14.23.677,exp_g1,2022.2.5,MacIntel,60.0024001,,,,,,,062,l1,f,en,na,audio/062.wav,,l1_f_en_na_062,,,,,,,image/shoe.png,image/ring.png,shoe,lshift,,,,,,,lshift,1,1.8075,0,11,11,1,1,1,shoe,ring,shoe,ring,,,,,,,,,,,,,,,,
042,001,2023-09-29_14h14.23.677,exp_g1,2022.2.5,MacIntel,60.0024001,,,,,,,064,l1,f,en,na,audio/064.wav,,l1_f_en_na_064,,,,,,,image/wallet.png,image/key.png,wallet,lshift,,,,,,,lshift,1,1.7487,0,12,12,3,1,1,wallet,key,wallet,key,,,,,,,,,,,,,,,,
042,001,2023-09-29_14h14.23.677,exp_g1,2022.2.5,MacIntel,60.0024001,,,,,,,073,l1,f,en,na,audio/073.wav,,l1_f_en_na_073,,,,,,,image/socks.png,image/tshirt.png,tshirt,rshift,,,,,,,rshift,1,2.1033,0,13,13,12,1,1,tshirt,socks,socks,tshirt,,,,,,,,,,,,,,,,
042,001,2023-09-29_14h14.23.677,exp_g1,2022.2.5,MacIntel,60.0024001,,,,,,,072,l1,f,en,na,audio/072.wav,,l1_f_en_na_072,,,,,,,image/dog.png,image/fish.png,dog,lshift,,,,,,,lshift,1,2.0583,0,14,14,11,1,1,dog,fish,dog,fish,,,,,,,,,,,,,,,,
042,001,2023-09-29_14h14.23.677,exp_g1,2022.2.5,MacIntel,60.0024001,,,,,,,061,l1,f,en,na,audio/061.wav,,l1_f_en_na_061,,,,,,,image/cat.png,image/dog.png,dog,rshift,,,,,,,rshift,1,2.0263,0,15,15,0,1,1,dog,cat,cat,dog,image/,,,,,,,,,,,,,,,
042,001,2023-09-29_14h14.23.677,exp_g1,2022.2.5,MacIntel,60.0024001,,,,,,,075,l1,f,en,na,audio/075.wav,,l1_f_en_na_075,,,,,,,image/dog.png,image/fish.png,fish,rshift,,,,,,,rshift,1,2.1181,0,16,16,14,1,1,fish,dog,dog,fish,,,,,,,,,,,,,,,,
042,001,2023-09-29_14h14.23.677,exp_g1,2022.2.5,MacIntel,60.0024001,,,,,,,132,l1,t,es,f0u,audio/132.wav,,l1_t_es_f0u_132,,,,,,,image/car.png,image/grandma.png,grandma,rshift,,,,,,,rshift,1,3.0475,0,17,17,46,1,1,grandma,car,car,grandma,,,,,,,,,,,,,,,,
042,001,2023-09-29_14h14.23.677,exp_g1,2022.2.5,MacIntel,60.0024001,,,,,,,084,l1,f,se,na,audio/084.wav,,l1_f_se_na_084,,,,,,,image/penthouse.png,image/rocket.png,penthouse,lshift,,,,,,,lshift,1,2.6931,0,18,18,23,1,1,penthouse,rocket,penthouse,rocket,,,,,,,,,,,,,,,,
042,001,2023-09-29_14h14.23.677,exp_g1,2022.2.5,MacIntel,60.0024001,,,,,,,083,l1,f,se,na,audio/083.wav,,l1_f_se_na_083,,,,,,,image/donut.png,image/burger.png,burger,rshift,,,,,,,rshift,1,2.0342,0,19,19,22,1,1,burger,donut,donut,burger,,,,,,,,,,,,,,,,
042,001,2023-09-29_14h14.23.677,exp_g1,2022.2.5,MacIntel,60.0024001,,,,,,,137,l1,t,es,f0u,audio/137.wav,,l1_t_es_f0u_137,,,,,,,image/jacket.png,image/shirt.png,jacket,lshift,,,,,,,lshift,1,2.0769,0,20,20,51,1,1,jacket,shirt,jacket,shirt,,,,,,,,,,,,,,,,
042,001,2023-09-29_14h14.23.677,exp_g1,2022.2.5,MacIntel,60.0024001,,,,,,,019,l1,t,es,na,audio/019.wav,,l1_t_es_na_019,,,,,,,image/boy.png,image/dog.png,boy,lshift,,,,,,,lshift,1,2.7553,0,21,21,43,1,1,boy,dog,boy,dog,,,,,,,,,,,,,,,,
042,001,2023-09-29_14h14.23.677,exp_g1,2022.2.5,MacIntel,60.0024001,,,,,,,065,l1,f,en,na,audio/065.wav,,l1_f_en_na_065,,,,,,,image/computer.png,image/book.png,book,rshift,,,,,,,rshift,1,1.877,0,22,22,4,1,1,book,computer,computer,book,,,,,,,,,,,,,,,,
042,001,2023-09-29_14h14.23.677,exp_g1,2022.2.5,MacIntel,60.0024001,,,,,,,135,l1,t,es,f0u,audio/135.wav,,l1_t_es_f0u_135,,,,,,,image/flipflops.png,image/flower.png,flipflops,lshift,,,,,,,lshift,1,2.2932,0,23,23,49,1,1,flipflops,flower,flipflops,flower,,,,,,,,,,,,,,,,
042,001,2023-09-29_14h14.23.677,exp_g1,2022.2.5,MacIntel,60.0024001,,,,,,,063,l1,f,en,na,audio/063.wav,,l1_f_en_na_063,,,,,,,image/woman.png,image/man.png,man,rshift,,,,,,,rshift,1,1.9423,0,24,24,2,1,1,man,woman,woman,man,,,,,,,,,,,,,,,,
042,001,2023-09-29_14h14.23.677,exp_g1,2022.2.5,MacIntel,60.0024001,,,,,,,074,l1,f,en,na,audio/074.wav,,l1_f_en_na_074,,,,,,,image/boy.png,image/woman.png,boy,lshift,,,,,,,lshift,1,1.9003,0,25,25,13,1,1,boy,woman,boy,woman,,,,,,,,,,,,,,,,
042,001,2023-09-29_14h14.23.677,exp_g1,2022.2.5,MacIntel,60.0024001,,,,,,,081,l1,f,se,na,audio/081.wav,,l1_f_se_na_081,,,,,,,image/boxers.png,image/sweatpants.png,sweatpants,rshift,,,,,,,rshift,1,2.5479,0,26,26,20,1,1,sweatpants,boxers,boxers,sweatpants,,,,,,,,,,,,,,,,
042,001,2023-09-29_14h14.23.677,exp_g1,2022.2.5,MacIntel,60.0024001,,,,,,,140,l1,t,es,f0u,audio/140.wav,,l1_t_es_f0u_140,,,,,,,image/ring.png,image/bracelet.png,bracelet,rshift,,,,,,,rshift,1,2.8235,0,27,27,54,1,1,bracelet,ring,ring,bracelet,,,,,,,,,,,,,,,,
042,001,2023-09-29_14h14.23.677,exp_g1,2022.2.5,MacIntel,60.0024001,,,,,,,078,l1,f,se,na,audio/078.wav,,l1_f_se_na_078,,,,,,,image/airpods.png,image/joycons.png,airpods,lshift,,,,,,,lshift,1,1.9837,0,28,28,17,1,1,airpods,joycons,airpods,joycons,,,,,,,,,,,,,,,,
042,001,2023-09-29_14h14.23.677,exp_g1,2022.2.5,MacIntel,60.0024001,,,,,,,092,l1,f,sp,na,audio/092.wav,,l1_f_sp_na_092,,,,,,,image/armchair.png,image/dog.png,armchair,lshift,,,,,,,lshift,1,2.5109,0,29,29,31,1,1,armchair,dog,armchair,dog,,,,,,,,,,,,,,,,
042,001,2023-09-29_14h14.23.677,exp_g1,2022.2.5,MacIntel,60.0024001,,,,,,,069,l1,f,en,na,audio/069.wav,,l1_f_en_na_069,,,,,,,image/bag.png,image/shirt.png,shirt,rshift,,,,,,,rshift,1,1.6331,0,30,30,8,1,1,shirt,bag,bag,shirt,,,,,,,,,,,,,,,,
042,001,2023-09-29_14h14.23.677,exp_g1,2022.2.5,MacIntel,60.0024001,,,,,,,133,l1,t,es,f0u,audio/133.wav,,l1_t_es_f0u_133,,,,,,,image/cellphone.png,image/book.png,cellphone,lshift,,,,,,,lshift,1,2.3104,0,31,31,47,1,1,cellphone,book,cellphone,book,,,,,,,,,,,,,,,,
042,001,2023-09-29_14h14.23.677,exp_g1,2022.2.5,MacIntel,60.0024001,,,,,,,012,l1,t,es,na,audio/012.wav,,l1_t_es_na_012,,,,,,,image/newspaper.png,image/book.png,book,rshift,,,,,,,rshift,1,2.9853,0,32,32,36,1,1,book,newspaper,newspaper,book,,,,,,,,,,,,,,,,
042,001,2023-09-29_14h14.23.677,exp_g1,2022.2.5,MacIntel,60.0024001,,,,,,,071,l1,f,en,na,audio/071.wav,,l1_f_en_na_071,,,,,,,image/wallet.png,image/plane.png,plane,rshift,,,,,,,rshift,1,2.4456,0,33,33,10,1,1,plane,wallet,wallet,plane,,,,,,,,,,,,,,,,
042,001,2023-09-29_14h14.23.677,exp_g1,2022.2.5,MacIntel,60.0024001,,,,,,,138,l1,t,es,f0u,audio/138.wav,,l1_t_es_f0u_138,,,,,,,image/pants.png,image/shirt.png,shirt,rshift,,,,,,,rshift,1,2.4573,0,34,34,52,1,1,shirt,pants,pants,shirt,,,,,,,,,,,,,,,,
042,001,2023-09-29_14h14.23.677,exp_g1,2022.2.5,MacIntel,60.0024001,,,,,,,070,l1,f,en,na,audio/070.wav,,l1_f_en_na_070,,,,,,,image/computer.png,image/bed.png,computer,lshift,,,,,,,lshift,1,2.159,0,35,35,9,1,1,computer,bed,computer,bed,,,,,,,,,,,,,,,,
042,001,2023-09-29_14h14.23.677,exp_g1,2022.2.5,MacIntel,60.0024001,,,,,,,079,l1,f,se,na,audio/079.wav,,l1_f_se_na_079,,,,,,,image/sweatpants.png,image/jeans.png,jeans,rshift,,,,,,,rshift,1,1.9597,0,36,36,18,1,1,jeans,sweatpants,sweatpants,jeans,,,,,,,,,,,,,,,,
042,001,2023-09-29_14h14.23.677,exp_g1,2022.2.5,MacIntel,60.0024001,,,,,,,089,l1,f,sp,na,audio/089.wav,,l1_f_sp_na_089,,,,,,,image/bed.png,image/wallet.png,wallet,rshift,,,,,,,rshift,1,2.316,0,37,37,28,1,1,wallet,bed,bed,wallet,,,,,,,,,,,,,,,,
042,001,2023-09-29_14h14.23.677,exp_g1,2022.2.5,MacIntel,60.0024001,,,,,,,095,l1,f,sp,na,audio/095.wav,,l1_f_sp_na_095,,,,,,,image/socks.png,image/key.png,key,rshift,,,,,,,rshift,1,1.8191,0,38,38,34,1,1,key,socks,socks,key,,,,,,,,,,,,,,,,
042,001,2023-09-29_14h14.23.677,exp_g1,2022.2.5,MacIntel,60.0024001,,,,,,,020,l1,t,es,na,audio/020.wav,,l1_t_es_na_020,,,,,,,image/cellphone.png,image/backpack.png,backpack,rshift,,,,,,,rshift,1,2.4087,0,39,39,44,1,1,backpack,cellphone,cellphone,backpack,,,,,,,,,,,,,,,,
042,001,2023-09-29_14h14.23.677,exp_g1,2022.2.5,MacIntel,60.0024001,,,,,,,014,l1,t,es,na,audio/014.wav,,l1_t_es_na_014,,,,,,,image/book.png,image/key.png,key,rshift,,,,,,,rshift,1,2.2701,0,40,40,38,1,1,key,book,book,key,,,,,,,,,,,,,,,,
042,001,2023-09-29_14h14.23.677,exp_g1,2022.2.5,MacIntel,60.0024001,,,,,,,017,l1,t,es,na,audio/017.wav,,l1_t_es_na_017,,,,,,,image/jug.png,image/cat.png,jug,lshift,,,,,,,lshift,1,2.673,0,41,41,41,1,1,jug,cat,jug,cat,,,,,,,,,,,,,,,,
042,001,2023-09-29_14h14.23.677,exp_g1,2022.2.5,MacIntel,60.0024001,,,,,,,066,l1,f,en,na,audio/066.wav,,l1_f_en_na_066,,,,,,,image/bag.png,image/scarf.png,bag,lshift,,,,,,,lshift,1,2.2257,0,42,42,5,1,1,bag,scarf,bag,scarf,,,,,,,,,,,,,,,,
042,001,2023-09-29_14h14.23.677,exp_g1,2022.2.5,MacIntel,60.0024001,,,,,,,077,l1,f,se,na,audio/077.wav,,l1_f_se_na_077,,,,,,,image/mashedpotatoes.png,image/donut.png,donut,rshift,,,,,,,rshift,1,2.0545,0,43,43,16,1,1,donut,mashedpotatoes,mashedpotatoes,donut,,,,,,,,,,,,,,,,
042,001,2023-09-29_14h14.23.677,exp_g1,2022.2.5,MacIntel,60.0024001,,,,,,,090,l1,f,sp,na,audio/090.wav,,l1_f_sp_na_090,,,,,,,image/bag.png,image/bottle.png,bag,lshift,,,,,,,lshift,1,2.6446,0,44,44,29,1,1,bag,bottle,bag,bottle,,,,,,,,,,,,,,,,
042,001,2023-09-29_14h14.23.677,exp_g1,2022.2.5,MacIntel,60.0024001,,,,,,,013,l1,t,es,na,audio/013.wav,,l1_t_es_na_013,,,,,,,image/beer.png,image/wine.png,beer,lshift,,,,,,,lshift,1,2.9101,0,45,45,37,1,1,beer,wine,beer,wine,,,,,,,,,,,,,,,,
042,001,2023-09-29_14h14.23.677,exp_g1,2022.2.5,MacIntel,60.0024001,,,,,,,085,l1,f,se,na,audio/085.wav,,l1_f_se_na_085,,,,,,,image/loafers.png,image/sneakers.png,sneakers,rshift,,,,,,,rshift,1,2.5047,0,46,46,24,1,1,sneakers,loafers,loafers,sneakers,,,,,,,,,,,,,,,,
042,001,2023-09-29_14h14.23.677,exp_g1,2022.2.5,MacIntel,60.0024001,,,,,,,082,l1,f,se,na,audio/082.wav,,l1_f_se_na_082,,,,,,,image/mickeymouse.png,image/spongebob.png,mickeymouse,lshift,,,,,,,lshift,1,2.2365,0,47,47,21,1,1,mickeymouse,spongebob,mickeymouse,spongebob,,,,,,,,,,,,,,,,
042,001,2023-09-29_14h14.23.677,exp_g1,2022.2.5,MacIntel,60.0024001,,,,,,,139,l1,t,es,f0u,audio/139.wav,,l1_t_es_f0u_139,,,,,,,image/restaurant.png,image/hotel.png,restaurant,lshift,,,,,,,lshift,1,2.875,0,48,48,53,1,1,restaurant,hotel,restaurant,hotel,,,,,,,,,,,,,,,,
042,001,2023-09-29_14h14.23.677,exp_g1,2022.2.5,MacIntel,60.0024001,,,,,,,086,l1,f,sp,na,audio/086.wav,,l1_f_sp_na_086,,,,,,,image/plates.png,image/glasses.png,plates,lshift,,,,,,,lshift,1,1.929,0,49,49,25,1,1,plates,glasses,plates,glasses,,,,,,,,,,,,,,,,
042,001,2023-09-29_14h14.23.677,exp_g1,2022.2.5,MacIntel,60.0024001,,,,,,,091,l1,f,sp,na,audio/091.wav,,l1_f_sp_na_091,,,,,,,image/backpack.png,image/bracelet.png,bracelet,rshift,,,,,,,rshift,1,1.9904,0,50,50,30,1,1,bracelet,backpack,backpack,bracelet,,,,,,,,,,,,,,,,
042,001,2023-09-29_14h14.23.677,exp_g1,2022.2.5,MacIntel,60.0024001,,,,,,,015,l1,t,es,na,audio/015.wav,,l1_t_es_na_015,,,,,,,image/glasses.png,image/jacket.png,glasses,lshift,,,,,,,lshift,1,2.3637,0,51,51,39,1,1,glasses,jacket,glasses,jacket,,,,,,,,,,,,,,,,
042,001,2023-09-29_14h14.23.677,exp_g1,2022.2.5,MacIntel,60.0024001,,,,,,,134,l1,t,es,f0u,audio/134.wav,,l1_t_es_f0u_134,,,,,,,image/basket.png,image/truck.png,truck,rshift,,,,,,,rshift,1,2.8409,0,52,52,48,1,1,truck,basket,basket,truck,,,,,,,,,,,,,,,,
042,001,2023-09-29_14h14.23.677,exp_g1,2022.2.5,MacIntel,60.0024001,,,,,,,131,l1,t,es,f0u,audio/131.wav,,l1_t_es_f0u_131,,,,,,,image/cat.png,image/flower.png,cat,lshift,,,,,,,lshift,1,2.2105,0,53,53,45,1,1,cat,flower,cat,flower,,,,,,,,,,,,,,,,
042,001,2023-09-29_14h14.23.677,exp_g1,2022.2.5,MacIntel,60.0024001,,,,,,,088,l1,f,sp,na,audio/088.wav,,l1_f_sp_na_088,,,,,,,image/book.png,image/cellphone.png,book,lshift,,,,,,,lshift,1,2.0141,0,54,54,27,1,1,book,cellphone,book,cellphone,,,,,,,,,,,,,,,,
042,001,2023-09-29_14h14.23.677,exp_g1,2022.2.5,MacIntel,60.0024001,,,,,,,,,,,,,,,,,,,,,,,,,,,,,,,,,,,,,,,,,,,,,,,,,,,,,,,,,,,
042,001,2023-09-29_14h14.23.677,exp_g1,2022.2.5,MacIntel,60.0024001,,,,,,,,,,,,,,,,,,,,,,,,,,,,,,,,,,,,,,,,,,,,,"[""lshift"",""rshift""]","[1.9592999999970289,2.749700000003031]",0,0,0,0,1,,,,,,,,
042,001,2023-09-29_14h14.23.677,exp_g1,2022.2.5,MacIntel,60.0024001,,,,,,,,,,,,,,,,,,,,,,,,,,,,,,,,,,,,,,,,,,,,,,,,,,,,,,,,,,,
042,001,2023-09-29_14h14.23.677,exp_g1,2022.2.5,MacIntel,60.0024001,,,,,,,100,l2,f,en,na,audio/100.wav,,l2_f_en_na_100,,,,,,,image/america.png,image/spain.png,,,,,,,,,,,,,,,,,2,america,spain,,,,,,,,,,,"[""lshift"",""lshift""]","[1.945400000005975,4.278400000005945]",0,0,0,4,1,
042,001,2023-09-29_14h14.23.677,exp_g1,2022.2.5,MacIntel,60.0024001,,,,,,,096,l2,f,en,na,audio/096.wav,,l2_f_en_na_096,,,,,,,image/america.png,image/spain.png,,,,,,,,,,,,,,,,,2,america,spain,,,,,,,,,,,"[""lshift"",""lshift"",""lshift"",""lshift""]","[2.082599999994045,3.7340999999940436,4.290099999994027,4.783099999994022]",0,1,1,0,1,
042,001,2023-09-29_14h14.23.677,exp_g1,2022.2.5,MacIntel,60.0024001,,,,,,,121,l2,f,sp,na,audio/121.wav,,l2_f_sp_na_121,,,,,,,image/america.png,image/spain.png,,,,,,,,,,,,,,,,,2,america,spain,,,,,,,,,,,"[""rshift"",""rshift"",""rshift"",""rshift"",""rshift"",""rshift"",""rshift"",""rshift""]","[1.670500000000004,1.9177999999970439,2.1227000000030216,2.306500000000028,2.5172999999970216,2.7170999999940477,2.9915000000000305,3.3582999999970298]",0,2,2,25,1,
042,001,2023-09-29_14h14.23.677,exp_g1,2022.2.5,MacIntel,60.0024001,,,,,,,119,l2,f,se,na,audio/119.wav,,l2_f_se_na_119,,,,,,,image/america.png,image/spain.png,,,,,,,,,,,,,,,,,2,america,spain,,,,,,,,,,,"[""rshift"",""rshift""]","[2.270599999994033,4.595299999996996]",0,3,3,23,1,1
042,001,2023-09-29_14h14.23.677,exp_g1,2022.2.5,MacIntel,60.0024001,,,,,,,111,l2,f,se,na,audio/111.wav,,l2_f_se_na_111,,,,,,,image/america.png,image/spain.png,,,,,,,,,,,,,,,,,2,america,spain,,,,,,,,,,,"[""lshift"",""rshift""]","[2.587899999991066,3.184399999991058]",0,4,4,15,1,1
042,001,2023-09-29_14h14.23.677,exp_g1,2022.2.5,MacIntel,60.0024001,,,,,,,102,l2,f,en,na,audio/102.wav,,l2_f_en_na_102,,,,,,,image/america.png,image/spain.png,,,,,,,,,,,,,,,,,2,america,spain,,,,,,,,,,,"[""lshift"",""lshift""]","[1.617600000008963,3.3495000000000346]",0,5,5,6,1,
042,001,2023-09-29_14h14.23.677,exp_g1,2022.2.5,MacIntel,60.0024001,,,,,,,161,l2,t,es,f0c,audio/161.wav,,l2_t_es_f0c_161,,,,,,,image/america.png,image/spain.png,,,,,,,,,,,,,,,,,2,america,spain,,,,,,,,,,,"[""lshift"",""rshift"",""rshift""]","[2.000799999997014,2.934000000000026,4.099099999994053]",0,6,6,45,1,1
042,001,2023-09-29_14h14.23.677,exp_g1,2022.2.5,MacIntel,60.0024001,,,,,,,107,l2,f,en,na,audio/107.wav,,l2_f_en_na_107,,,,,,,image/america.png,image/spain.png,,,,,,,,,,,,,,,,,2,america,spain,,,,,,,,,,,"[""lshift"",""lshift""]","[2.5006999999880577,3.92349999999999]",0,7,7,11,1,
042,001,2023-09-29_14h14.23.677,exp_g1,2022.2.5,MacIntel,60.0024001,,,,,,,116,l2,f,se,na,audio/116.wav,,l2_f_se_na_116,,,,,,,image/america.png,image/spain.png,,,,,,,,,,,,,,,,,2,america,spain,,,,,,,,,,,"[""rshift"",""rshift""]","[2.3179000000059773,4.801499999999976]",0,8,8,20,1,1
042,001,2023-09-29_14h14.23.677,exp_g1,2022.2.5,MacIntel,60.0024001,,,,,,,027,l2,t,es,na,audio/027.wav,,l2_t_es_na_027,,,,,,,image/america.png,image/spain.png,,,,,,,,,,,,,,,,,2,america,spain,,,,,,,,,,,"[""rshift"",""lshift"",""rshift""]","[2.2730000000000246,3.5338000000119223,4.049600000008979]",0,9,9,41,1,1
042,001,2023-09-29_14h14.23.677,exp_g1,2022.2.5,MacIntel,60.0024001,,,,,,,125,l2,f,sp,na,audio/125.wav,,l2_f_sp_na_125,,,,,,,image/america.png,image/spain.png,,,,,,,,,,,,,,,,,2,america,spain,,,,,,,,,,,"[""rshift"",""rshift""]","[1.9365000000000236,3.20150000000001]",0,10,10,29,1,
042,001,2023-09-29_14h14.23.677,exp_g1,2022.2.5,MacIntel,60.0024001,,,,,,,126,l2,f,sp,na,audio/126.wav,,l2_f_sp_na_126,,,,,,,image/america.png,image/spain.png,,,,,,,,,,,,,,,,,2,america,spain,,,,,,,,,,,"[""rshift"",""rshift""]","[1.8530000000000086,2.7174000000059664]",0,11,11,30,1,
042,001,2023-09-29_14h14.23.677,exp_g1,2022.2.5,MacIntel,60.0024001,,,,,,,170,l2,t,es,f0c,audio/170.wav,,l2_t_es_f0c_170,,,,,,,image/america.png,image/spain.png,,,,,,,,,,,,,,,,,2,america,spain,,,,,,,,,,,"[""lshift"",""rshift"",""lshift"",""rshift""]","[1.9174999999999613,2.5482999999969707,3.934400000005951,3.937799999996969]",0,12,12,54,1,1
042,001,2023-09-29_14h14.23.677,exp_g1,2022.2.5,MacIntel,60.0024001,,,,,,,025,l2,t,es,na,audio/025.wav,,l2_t_es_na_025,,,,,,,image/america.png,image/spain.png,,,,,,,,,,,,,,,,,2,america,spain,,,,,,,,,,,"[""lshift"",""rshift""]","[3.134200000002977,3.569100000008973]",0,13,13,39,1,1
042,001,2023-09-29_14h14.23.677,exp_g1,2022.2.5,MacIntel,60.0024001,,,,,,,106,l2,f,en,na,audio/106.wav,,l2_f_en_na_106,,,,,,,image/america.png,image/spain.png,,,,,,,,,,,,,,,,,2,america,spain,,,,,,,,,,,"[""lshift""]",[2.804599999994025],0,14,14,10,1,
042,001,2023-09-29_14h14.23.677,exp_g1,2022.2.5,MacIntel,60.0024001,,,,,,,105,l2,f,en,na,audio/105.wav,,l2_f_en_na_105,,,,,,,image/america.png,image/spain.png,,,,,,,,,,,,,,,,,2,america,spain,,,,,,,,,,,"[""lshift"",""lshift""]","[2.524499999999989,4.001500000000021]",0,15,15,9,1,
042,001,2023-09-29_14h14.23.677,exp_g1,2022.2.5,MacIntel,60.0024001,,,,,,,165,l2,t,es,f0c,audio/165.wav,,l2_t_es_f0c_165,,,,,,,image/america.png,image/spain.png,,,,,,,,,,,,,,,,,2,america,spain,,,,,,,,,,,"[""lshift"",""rshift"",""lshift"",""rshift""]","[2.068699999988098,2.4858999999910907,4.142500000000041,4.143099999994092]",0,16,16,49,1,1
042,001,2023-09-29_14h14.23.677,exp_g1,2022.2.5,MacIntel,60.0024001,,,,,,,117,l2,f,se,na,audio/117.wav,,l2_f_se_na_117,,,,,,,image/america.png,image/spain.png,,,,,,,,,,,,,,,,,2,america,spain,,,,,,,,,,,"[""rshift"",""rshift"",""rshift""]","[1.754000000000019,2.454099999994014,4.602799999996989]",0,17,17,21,1,1
042,001,2023-09-29_14h14.23.677,exp_g1,2022.2.5,MacIntel,60.0024001,,,,,,,124,l2,f,sp,na,audio/124.wav,,l2_f_sp_na_124,,,,,,,image/america.png,image/spain.png,,,,,,,,,,,,,,,,,2,america,spain,,,,,,,,,,,"[""rshift"",""rshift""]","[1.7509999999999764,2.967700000002992]",0,18,18,28,1,
042,001,2023-09-29_14h14.23.677,exp_g1,2022.2.5,MacIntel,60.0024001,,,,,,,098,l2,f,en,na,audio/098.wav,,l2_f_en_na_098,,,,,,,image/america.png,image/spain.png,,,,,,,,,,,,,,,,,2,america,spain,,,,,,,,,,,"[""lshift"",""lshift""]","[1.5818999999911512,2.502700000003074]",0,19,19,2,1,
042,001,2023-09-29_14h14.23.677,exp_g1,2022.2.5,MacIntel,60.0024001,,,,,,,127,l2,f,sp,na,audio/127.wav,,l2_f_sp_na_127,,,,,,,image/america.png,image/spain.png,,,,,,,,,,,,,,,,,2,america,spain,,,,,,,,,,,"[""rshift"",""rshift""]","[1.2665999999941278,2.455899999991061]",0,20,20,31,1,
042,001,2023-09-29_14h14.23.677,exp_g1,2022.2.5,MacIntel,60.0024001,,,,,,,163,l2,t,es,f0c,audio/163.wav,,l2_t_es_f0c_163,,,,,,,image/america.png,image/spain.png,,,,,,,,,,,,,,,,,2,america,spain,,,,,,,,,,,"[""lshift"",""lshift"",""rshift"",""rshift""]","[2.4511000000088643,3.0574000000059414,3.500100000008956,4.817400000005932]",0,21,21,47,1,1
042,001,2023-09-29_14h14.23.677,exp_g1,2022.2.5,MacIntel,60.0024001,,,,,,,103,l2,f,en,na,audio/103.wav,,l2_f_en_na_103,,,,,,,image/america.png,image/spain.png,,,,,,,,,,,,,,,,,2,america,spain,,,,,,,,,,,"[""lshift"",""lshift""]","[2.254799999996976,3.09050000000002]",0,22,22,7,1,
042,001,2023-09-29_14h14.23.677,exp_g1,2022.2.5,MacIntel,60.0024001,,,,,,,110,l2,f,en,na,audio/110.wav,,l2_f_en_na_110,,,,,,,image/america.png,image/spain.png,,,,,,,,,,,,,,,,,2,america,spain,,,,,,,,,,,"[""lshift"",""lshift""]","[1.9437000000029911,3.3132999999970707]",0,23,23,14,1,
042,001,2023-09-29_14h14.23.677,exp_g1,2022.2.5,MacIntel,60.0024001,,,,,,,122,l2,f,sp,na,audio/122.wav,,l2_f_sp_na_122,,,,,,,image/america.png,image/spain.png,,,,,,,,,,,,,,,,,2,america,spain,,,,,,,,,,,"[""rshift"",""rshift""]","[1.5193999999911512,2.6537999999970907]",0,24,24,26,1,
042,001,2023-09-29_14h14.23.677,exp_g1,2022.2.5,MacIntel,60.0024001,,,,,,,029,l2,t,es,na,audio/029.wav,,l2_t_es_na_029,,,,,,,image/america.png,image/spain.png,,,,,,,,,,,,,,,,,2,america,spain,,,,,,,,,,,"[""lshift"",""rshift""]","[2.7227999999970507,3.866599999994037]",0,25,25,43,1,1
042,001,2023-09-29_14h14.23.677,exp_g1,2022.2.5,MacIntel,60.0024001,,,,,,,104,l2,f,en,na,audio/104.wav,,l2_f_en_na_104,,,,,,,image/america.png,image/spain.png,,,,,,,,,,,,,,,,,2,america,spain,,,,,,,,,,,"[""lshift""]",[1.8835000000000264],0,26,26,8,1,
042,001,2023-09-29_14h14.23.677,exp_g1,2022.2.5,MacIntel,60.0024001,,,,,,,129,l2,f,sp,na,audio/129.wav,,l2_f_sp_na_129,,,,,,,image/america.png,image/spain.png,,,,,,,,,,,,,,,,,2,america,spain,,,,,,,,,,,"[""rshift"",""rshift"",""rshift""]","[1.2915999999939913,2.7182999999969297,4.701700000002916]",0,27,27,33,1,
042,001,2023-09-29_14h14.23.677,exp_g1,2022.2.5,MacIntel,60.0024001,,,,,,,022,l2,t,es,na,audio/022.wav,,l2_t_es_na_022,,,,,,,image/america.png,image/spain.png,,,,,,,,,,,,,,,,,2,america,spain,,,,,,,,,,,"[""lshift"",""rshift"",""rshift""]","[1.7839000000059286,2.481600000008939,3.5697999999970307]",0,28,28,36,1,1
042,001,2023-09-29_14h14.23.677,exp_g1,2022.2.5,MacIntel,60.0024001,,,,,,,108,l2,f,en,na,audio/108.wav,,l2_f_en_na_108,,,,,,,image/america.png,image/spain.png,,,,,,,,,,,,,,,,,2,america,spain,,,,,,,,,,,"[""lshift""]",[2.6182000000029575],0,29,29,12,1,
042,001,2023-09-29_14h14.23.677,exp_g1,2022.2.5,MacIntel,60.0024001,,,,,,,097,l2,f,en,na,audio/097.wav,,l2_f_en_na_097,,,,,,,image/america.png,image/spain.png,,,,,,,,,,,,,,,,,2,america,spain,,,,,,,,,,,"[""lshift""]",[2.2835000000000036],0,30,30,1,1,
042,001,2023-09-29_14h14.23.677,exp_g1,2022.2.5,MacIntel,60.0024001,,,,,,,169,l2,t,es,f0c,audio/169.wav,,l2_t_es_f0c_169,,,,,,,image/america.png,image/spain.png,,,,,,,,,,,,,,,,,2,america,spain,,,,,,,,,,,"[""lshift"",""lshift"",""lshift""]","[1.933600000008937,2.6326000000088925,4.866100000008942]",0,31,31,53,1,1
042,001,2023-09-29_14h14.23.677,exp_g1,2022.2.5,MacIntel,60.0024001,,,,,,,112,l2,f,se,na,audio/112.wav,,l2_f_se_na_112,,,,,,,image/america.png,image/spain.png,,,,,,,,,,,,,,,,,2,america,spain,,,,,,,,,,,"[""rshift"",""rshift"",""rshift""]","[1.4700000000000273,1.8503000000119982,2.4342000000029884]",0,32,32,16,1,1
042,001,2023-09-29_14h14.23.677,exp_g1,2022.2.5,MacIntel,60.0024001,,,,,,,024,l2,t,es,na,audio/024.wav,,l2_t_es_na_024,,,,,,,image/america.png,image/spain.png,,,,,,,,,,,,,,,,,2,america,spain,,,,,,,,,,,"[""lshift"",""rshift"",""lshift"",""rshift"",""rshift""]","[2.0167000000029702,2.3892000000029157,3.5162999999970452,3.6495999999940523,4.155999999999949]",0,33,33,38,1,1
042,001,2023-09-29_14h14.23.677,exp_g1,2022.2.5,MacIntel,60.0024001,,,,,,,113,l2,f,se,na,audio/113.wav,,l2_f_se_na_113,,,,,,,image/america.png,image/spain.png,,,,,,,,,,,,,,,,,2,america,spain,,,,,,,,,,,"[""rshift"",""rshift"",""rshift"",""lshift""]","[1.8497000000029402,2.333399999991002,3.284899999991012,4.141799999997033]",0,34,34,17,1,1
042,001,2023-09-29_14h14.23.677,exp_g1,2022.2.5,MacIntel,60.0024001,,,,,,,118,l2,f,se,na,audio/118.wav,,l2_f_se_na_118,,,,,,,image/america.png,image/spain.png,,,,,,,,,,,,,,,,,2,america,spain,,,,,,,,,,,"[""rshift"",""rshift""]","[2.25920000000292,3.182299999996985]",0,35,35,22,1,1
042,001,2023-09-29_14h14.23.677,exp_g1,2022.2.5,MacIntel,60.0024001,,,,,,,109,l2,f,en,na,audio/109.wav,,l2_f_en_na_109,,,,,,,image/america.png,image/spain.png,,,,,,,,,,,,,,,,,2,america,spain,,,,,,,,,,,"[""lshift"",""lshift""]","[2.0742000000029748,2.7502000000030193]",0,36,36,13,1,
042,001,2023-09-29_14h14.23.677,exp_g1,2022.2.5,MacIntel,60.0024001,,,,,,,162,l2,t,es,f0c,audio/162.wav,,l2_t_es_f0c_162,,,,,,,image/america.png,image/spain.png,,,,,,,,,,,,,,,,,2,america,spain,,,,,,,,,,,"[""rshift"",""rshift""]","[3.199199999988082,4.807599999994068]",0,37,37,46,1,1
042,001,2023-09-29_14h14.23.677,exp_g1,2022.2.5,MacIntel,60.0024001,,,,,,,166,l2,t,es,f0c,audio/166.wav,,l2_t_es_f0c_166,,,,,,,image/america.png,image/spain.png,,,,,,,,,,,,,,,,,2,america,spain,,,,,,,,,,,"[""lshift"",""rshift""]","[3.0494999999999663,3.6164000000059104]",0,38,38,50,1,1
042,001,2023-09-29_14h14.23.677,exp_g1,2022.2.5,MacIntel,60.0024001,,,,,,,115,l2,f,se,na,audio/115.wav,,l2_f_se_na_115,,,,,,,image/america.png,image/spain.png,,,,,,,,,,,,,,,,,2,america,spain,,,,,,,,,,,"[""lshift"",""rshift"",""rshift"",""rshift""]","[2.3999999999999773,2.9337000000030002,4.649999999999977,4.966499999999996]",0,39,39,19,1,1
042,001,2023-09-29_14h14.23.677,exp_g1,2022.2.5,MacIntel,60.0024001,,,,,,,023,l2,t,es,na,audio/023.wav,,l2_t_es_na_023,,,,,,,image/america.png,image/spain.png,,,,,,,,,,,,,,,,,2,america,spain,,,,,,,,,,,"[""rshift""]",[3.566500000000019],0,40,40,37,1,1
042,001,2023-09-29_14h14.23.677,exp_g1,2022.2.5,MacIntel,60.0024001,,,,,,,021,l2,t,es,na,audio/021.wav,,l2_t_es_na_021,,,,,,,image/america.png,image/spain.png,,,,,,,,,,,,,,,,,2,america,spain,,,,,,,,,,,"[""lshift"",""rshift""]","[2.5229000000059614,3.2180000000000746]",0,41,41,35,1,1
042,001,2023-09-29_14h14.23.677,exp_g1,2022.2.5,MacIntel,60.0024001,,,,,,,164,l2,t,es,f0c,audio/164.wav,,l2_t_es_f0c_164,,,,,,,image/america.png,image/spain.png,,,,,,,,,,,,,,,,,2,america,spain,,,,,,,,,,,"[""lshift"",""rshift""]","[2.150700000002985,2.798000000000002]",0,42,42,48,1,1
042,001,2023-09-29_14h14.23.677,exp_g1,2022.2.5,MacIntel,60.0024001,,,,,,,167,l2,t,es,f0c,audio/167.wav,,l2_t_es_f0c_167,,,,,,,image/america.png,image/spain.png,,,,,,,,,,,,,,,,,2,america,spain,,,,,,,,,,,"[""lshift"",""rshift""]","[2.9880000000000564,3.684500000000071]",0,43,43,51,1,1
042,001,2023-09-29_14h14.23.677,exp_g1,2022.2.5,MacIntel,60.0024001,,,,,,,130,l2,f,sp,na,audio/130.wav,,l2_f_sp_na_130,,,,,,,image/america.png,image/spain.png,,,,,,,,,,,,,,,,,2,america,spain,,,,,,,,,,,"[""rshift"",""rshift""]","[2.8008999999910884,3.4664999999999964]",0,44,44,34,1,
042,001,2023-09-29_14h14.23.677,exp_g1,2022.2.5,MacIntel,60.0024001,,,,,,,026,l2,t,es,na,audio/026.wav,,l2_t_es_na_026,,,,,,,image/america.png,image/spain.png,,,,,,,,,,,,,,,,,2,america,spain,,,,,,,,,,,"[""rshift"",""rshift""]","[2.733699999988062,3.5995999999940977]",0,45,45,40,1,1
042,001,2023-09-29_14h14.23.677,exp_g1,2022.2.5,MacIntel,60.0024001,,,,,,,128,l2,f,sp,na,audio/128.wav,,l2_f_sp_na_128,,,,,,,image/america.png,image/spain.png,,,,,,,,,,,,,,,,,2,america,spain,,,,,,,,,,,"[""rshift""]",[2.567799999997078],0,46,46,32,1,
042,001,2023-09-29_14h14.23.677,exp_g1,2022.2.5,MacIntel,60.0024001,,,,,,,101,l2,f,en,na,audio/101.wav,,l2_f_en_na_101,,,,,,,image/america.png,image/spain.png,,,,,,,,,,,,,,,,,2,america,spain,,,,,,,,,,,"[""lshift"",""lshift""]","[2.4060000000000628,2.9055000000000746]",0,47,47,5,1,
042,001,2023-09-29_14h14.23.677,exp_g1,2022.2.5,MacIntel,60.0024001,,,,,,,028,l2,t,es,na,audio/028.wav,,l2_t_es_na_028,,,,,,,image/america.png,image/spain.png,,,,,,,,,,,,,,,,,2,america,spain,,,,,,,,,,,"[""lshift"",""rshift""]","[2.4664999999999964,2.9028000000118936]",0,48,48,42,1,1
042,001,2023-09-29_14h14.23.677,exp_g1,2022.2.5,MacIntel,60.0024001,,,,,,,114,l2,f,se,na,audio/114.wav,,l2_f_se_na_114,,,,,,,image/america.png,image/spain.png,,,,,,,,,,,,,,,,,2,america,spain,,,,,,,,,,,"[""rshift"",""rshift""]","[2.3416000000089525,2.8888000000119973]",0,49,49,18,1,1
042,001,2023-09-29_14h14.23.677,exp_g1,2022.2.5,MacIntel,60.0024001,,,,,,,120,l2,f,se,na,audio/120.wav,,l2_f_se_na_120,,,,,,,image/america.png,image/spain.png,,,,,,,,,,,,,,,,,2,america,spain,,,,,,,,,,,"[""rshift"",""rshift""]","[3.28279999999711,3.784099999994055]",0,50,50,24,1,1
042,001,2023-09-29_14h14.23.677,exp_g1,2022.2.5,MacIntel,60.0024001,,,,,,,099,l2,f,en,na,audio/099.wav,,l2_f_en_na_099,,,,,,,image/america.png,image/spain.png,,,,,,,,,,,,,,,,,2,america,spain,,,,,,,,,,,"[""lshift"",""lshift""]","[2.300000000000068,2.833600000009028]",0,51,51,3,1,
042,001,2023-09-29_14h14.23.677,exp_g1,2022.2.5,MacIntel,60.0024001,,,,,,,123,l2,f,sp,na,audio/123.wav,,l2_f_sp_na_123,,,,,,,image/america.png,image/spain.png,,,,,,,,,,,,,,,,,2,america,spain,,,,,,,,,,,"[""rshift"",""rshift""]","[1.8159999999999172,2.899400000005926]",0,52,52,27,1,
042,001,2023-09-29_14h14.23.677,exp_g1,2022.2.5,MacIntel,60.0024001,,,,,,,168,l2,t,es,f0c,audio/168.wav,,l2_t_es_f0c_168,,,,,,,image/america.png,image/spain.png,,,,,,,,,,,,,,,,,2,america,spain,,,,,,,,,,,"[""lshift"",""rshift""]","[2.5326000000089834,2.951000000000022]",0,53,53,52,1,1
042,001,2023-09-29_14h14.23.677,exp_g1,2022.2.5,MacIntel,60.0024001,,,,,,,030,l2,t,es,na,audio/030.wav,,l2_t_es_na_030,,,,,,,image/america.png,image/spain.png,,,,,,,,,,,,,,,,,2,america,spain,,,,,,,,,,,"[""lshift"",""rshift""]","[1.367099999994025,2.283599999994067]",0,54,54,44,1,1
042,001,2023-09-29_14h14.23.677,exp_g1,2022.2.5,MacIntel,60.0024001,,,,,,,,,,,,,,,,,,,,,,,,,,,,,,,,,,,,,,,,,,,,,,,,,,,,,,,,,,,
