num,list,cond,lang,type,sound_dir,phr,sent_code,mat,mat_num,emb_num,emb,cut,mat_f0_c,left,right,correct_img,correct_key,exp_num,image,image_alt,left_img,right_img,image_dir,exp1_retrial.thisRepN,exp1_retrial.thisTrialN,exp1_retrial.thisN,exp1_retrial.thisIndex,exp1_trial_loop.thisRepN,exp1_trial_loop.thisTrialN,exp1_trial_loop.thisN,exp1_trial_loop.thisIndex,exp1_loop.thisRepN,exp1_loop.thisTrialN,exp1_loop.thisN,exp1_loop.thisIndex,exp2_retrial.thisRepN,exp2_retrial.thisTrialN,exp2_retrial.thisN,exp2_retrial.thisIndex,exp2_trial_loop.thisRepN,exp2_trial_loop.thisTrialN,exp2_trial_loop.thisN,exp2_trial_loop.thisIndex,exp1_trial_cross.started,exp1_trial_key.started,exp1_trial_cross.stopped,exp1_trial_sound.started,exp1_trial_key.keys,exp1_trial_key.rt,exp1_cross.started,exp1_key.started,exp1_key.keys,exp1_key.corr,exp1_key.rt,exp1_cross.stopped,exp2_trial_cross.started,exp2_trial_key.started,exp2_trial_cross.stopped,exp2_trial_sound.started,participant,session,date,expName,psychopyVersion,frameRate,
tr1,lt,tr,en,na,../practice_trial/audio/tr1.wav,Where are your kids?,lt_tr_en_na_tr1,-,-,-,-,-,-,../image/kids.png,../image/plates.png,kids,lshift,,,,,,,0,0,0,0,0,0,0,0,,,,,,,,,,,,,13.926651207963005,14.127962750033475,14.16674245800823,14.836428707644034,['lshift'],[1.451526042073965],,,,,,,,,,,748226,001,2023-08-16_12h00.01.038,exp_g1,2022.2.5,None,
tr2,lt,tr,en,na,../practice_trial/audio/tr2.wav,Who is buying my car?,lt_tr_en_na_tr2,-,-,-,-,-,-,../image/bag.png,../image/car.png,car,rshift,,,,,,,0,0,0,0,0,1,1,1,,,,,,,,,,,,,15.615579291014,15.831572375027463,15.850704582990147,,['rshift'],[0.2656631249701604],,,,,,,,,,,748226,001,2023-08-16_12h00.01.038,exp_g1,2022.2.5,None,
tr3,lt,tr,sp,na,../practice_trial/audio/tr3.wav,¿Dónde está mi perro?,lt_tr_sp_na_tr3,-,-,-,-,-,-,../image/dog.png,../image/grandma.png,dog,lshift,,,,,,,0,0,0,0,0,2,2,2,,,,,,,,,,,,,16.1332386250142,16.333986208075657,16.381519624963403,,['lshift'],[0.08964324998669326],,,,,,,,,,,748226,001,2023-08-16_12h00.01.038,exp_g1,2022.2.5,None,
tr4,lt,tr,sp,na,../practice_trial/audio/tr4.wav,¿De quién es la bolsa?,lt_tr_sp_na_tr4,-,-,-,-,-,-,../image/shirt.png,../image/bag.png,bag,rshift,,,,,,,0,0,0,0,0,3,3,3,,,,,,,,,,,,,16.462337624980137,16.680851957993582,16.703027500072494,,['rshift'],[0.23710529098752886],,,,,,,,,,,748226,001,2023-08-16_12h00.01.038,exp_g1,2022.2.5,None,
tr5,lt,tr,se,na,../practice_trial/audio/tr5.wav,¿Dónde encontraste sus donuts?,lt_tr_se_na_tr5,-,-,-,-,-,-,../image/donut.png,../image/cups.png,donut,lshift,,,,,,,0,0,0,0,0,4,4,4,,,,,,,,,,,,,16.95190674997866,17.167703125043772,17.198167333030142,,['lshift'],[0.2885565410833806],,,,,,,,,,,748226,001,2023-08-16_12h00.01.038,exp_g1,2022.2.5,None,
tr6,lt,tr,se,na,../practice_trial/audio/tr6.wav,¿Cuándo compraste tu sweater?,lt_tr_se_na_tr6,-,-,-,-,-,-,../image/chair.png,../image/sweater.png,sweater,rshift,,,,,,,0,0,0,0,0,5,5,5,,,,,,,,,,,,,17.503714791033417,17.71491162502207,17.75103050004691,,['rshift'],[0.11015320802107453],,,,,,,,,,,748226,001,2023-08-16_12h00.01.038,exp_g1,2022.2.5,None,
tr7,lt,tr,es,na,../practice_trial/audio/tr7.wav,Why do you have my camisa?,lt_tr_es_na_tr7,-,-,-,-,-,-,../image/shirt.png,../image/wallet.png,shirt,lshift,,,,,,,0,0,0,0,0,6,6,6,,,,,,,,,,,,,17.868580500013195,18.081597291049547,,,['lshift'],[-0.09415545803494751],,,,,,,,,,,748226,001,2023-08-16_12h00.01.038,exp_g1,2022.2.5,None,
tr8,lt,tr,es,na,../practice_trial/audio/tr8.wav,Where did you find his chanclas?,lt_tr_es_na_tr8,-,-,-,-,-,-,../image/key.png,../image/flipflops.png,flipflops,rshift,,,,,,,0,0,0,0,0,7,7,7,,,,,,,,,,,,,18.11590204096865,18.317812541034073,,,['rshift'],[-0.08380683290306479],,,,,,,,,,,748226,001,2023-08-16_12h00.01.038,exp_g1,2022.2.5,None,
,,,,,,,,,,,,,,,,,,,,,,,,0,0,0,0,,,,,,,,,,,,,,,,,,,,,,,,,,,,,,,,,748226,001,2023-08-16_12h00.01.038,exp_g1,2022.2.5,None,
tr1,lt,tr,en,na,../practice_trial/audio/tr1.wav,Where are your kids?,lt_tr_en_na_tr1,-,-,-,-,-,-,../image/kids.png,../image/plates.png,kids,lshift,,,,,,,1,0,1,0,0,0,0,0,,,,,,,,,,,,,21.112276165978983,21.21738400007598,,,"['lshift', 'rshift']","[-2.8244234999874607, -1.6159796249121428]",,,,,,,,,,,748226,001,2023-08-16_12h00.01.038,exp_g1,2022.2.5,None,
tr2,lt,tr,en,na,../practice_trial/audio/tr2.wav,Who is buying my car?,lt_tr_en_na_tr2,-,-,-,-,-,-,../image/bag.png,../image/car.png,car,rshift,,,,,,,1,0,1,0,0,1,1,1,,,,,,,,,,,,,21.240704583004117,21.46725366602186,21.48381495801732,,['lshift'],[0.10969004104845226],,,,,,,,,,,748226,001,2023-08-16_12h00.01.038,exp_g1,2022.2.5,None,
tr3,lt,tr,sp,na,../practice_trial/audio/tr3.wav,¿Dónde está mi perro?,lt_tr_sp_na_tr3,-,-,-,-,-,-,../image/dog.png,../image/grandma.png,dog,lshift,,,,,,,1,0,1,0,0,2,2,2,,,,,,,,,,,,,21.616899957996793,21.831488083000295,21.864958166028373,,['rshift'],[0.20498550008051097],,,,,,,,,,,748226,001,2023-08-16_12h00.01.038,exp_g1,2022.2.5,None,
tr4,lt,tr,sp,na,../practice_trial/audio/tr4.wav,¿De quién es la bolsa?,lt_tr_sp_na_tr4,-,-,-,-,-,-,../image/shirt.png,../image/bag.png,bag,rshift,,,,,,,1,0,1,0,0,3,3,3,,,,,,,,,,,,,22.078660083003342,22.29738958296366,22.31601870805025,,['lshift'],[0.11808729206677526],,,,,,,,,,,748226,001,2023-08-16_12h00.01.038,exp_g1,2022.2.5,None,
tr5,lt,tr,se,na,../practice_trial/audio/tr5.wav,¿Dónde encontraste sus donuts?,lt_tr_se_na_tr5,-,-,-,-,-,-,../image/donut.png,../image/cups.png,donut,lshift,,,,,,,1,0,1,0,0,4,4,4,,,,,,,,,,,,,22.447730166022666,22.664783415966667,22.684034583042376,,['rshift'],[0.12004758301191032],,,,,,,,,,,748226,001,2023-08-16_12h00.01.038,exp_g1,2022.2.5,None,
tr6,lt,tr,se,na,../practice_trial/audio/tr6.wav,¿Cuándo compraste tu sweater?,lt_tr_se_na_tr6,-,-,-,-,-,-,../image/chair.png,../image/sweater.png,sweater,rshift,,,,,,,1,0,1,0,0,5,5,5,,,,,,,,,,,,,22.823813416063786,23.03561070805881,23.066732999985106,,['lshift'],[0.092612124979496],,,,,,,,,,,748226,001,2023-08-16_12h00.01.038,exp_g1,2022.2.5,None,
tr7,lt,tr,es,na,../practice_trial/audio/tr7.wav,Why do you have my camisa?,lt_tr_es_na_tr7,-,-,-,-,-,-,../image/shirt.png,../image/wallet.png,shirt,lshift,,,,,,,1,0,1,0,0,6,6,6,,,,,,,,,,,,,23.160045749973506,23.38157533307094,23.403432541061193,,['rshift'],[0.10103366698604077],,,,,,,,,,,748226,001,2023-08-16_12h00.01.038,exp_g1,2022.2.5,None,
tr8,lt,tr,es,na,../practice_trial/audio/tr8.wav,Where did you find his chanclas?,lt_tr_es_na_tr8,-,-,-,-,-,-,../image/key.png,../image/flipflops.png,flipflops,rshift,,,,,,,1,0,1,0,0,7,7,7,,,,,,,,,,,,,23.513681665994227,23.731288166018203,23.75276833306998,,['lshift'],[0.09014224994461983],,,,,,,,,,,748226,001,2023-08-16_12h00.01.038,exp_g1,2022.2.5,None,
,,,,,,,,,,,,,,,,,,,,,,,,1,0,1,0,,,,,,,,,,,,,,,,,,,,,,,,,,,,,,,,,748226,001,2023-08-16_12h00.01.038,exp_g1,2022.2.5,None,
64.0,l1,f,en,na,../audio/064.wav,,l1_f_en_na_064,,,,,,,../image/wallet.png,../image/key.png,wallet,lshift,1,wallet,key,wallet,key,None,,,,,,,,,0,0,0,3,,,,,,,,,,,,,,,26.336464083055034,26.5140087910695,lshift,1,-0.37522520893253386,,,,,,748226,001,2023-08-16_12h00.01.038,exp_g1,2022.2.5,None,
78.0,l1,f,se,na,../audio/078.wav,,l1_f_se_na_078,,,,,,,../image/airpods.png,../image/joycons.png,airpods,lshift,1,airpods,joycons,airpods,joycons,None,,,,,,,,,0,1,1,17,,,,,,,,,,,,,,,26.53666729107499,26.750893041025847,lshift,1,0.10415091598406434,26.784071500063874,,,,,748226,001,2023-08-16_12h00.01.038,exp_g1,2022.2.5,None,
137.0,l1,t,es,f0u,../audio/137.wav,,l1_t_es_f0u_137,,,,,,,../image/jacket.png,../image/shirt.png,jacket,lshift,1,jacket,shirt,jacket,shirt,None,,,,,,,,,0,2,2,51,,,,,,,,,,,,,,,26.9014687910676,27.11390191607643,rshift,0,0.05769054195843637,27.150212666019797,,,,,748226,001,2023-08-16_12h00.01.038,exp_g1,2022.2.5,None,
133.0,l1,t,es,f0u,../audio/133.wav,,l1_t_es_f0u_133,,,,,,,../image/cellphone.png,../image/book.png,cellphone,lshift,1,cellphone,book,cellphone,book,None,,,,,,,,,0,3,3,47,,,,,,,,,,,,,,,27.213446874986403,27.417529625003226,lshift,1,0.015935042058117688,,,,,,748226,001,2023-08-16_12h00.01.038,exp_g1,2022.2.5,None,
132.0,l1,t,es,f0u,../audio/132.wav,,l1_t_es_f0u_132,,,,,,,../image/car.png,../image/grandma.png,grandma,rshift,1,grandma,car,car,grandma,None,,,,,,,,,0,4,4,46,,,,,,,,,,,,,,,27.467091541038826,27.6816745409742,rshift,1,0.00641550007276237,,,,,,748226,001,2023-08-16_12h00.01.038,exp_g1,2022.2.5,None,
91.0,l1,f,sp,na,../audio/091.wav,,l1_f_sp_na_091,,,,,,,../image/backpack.png,../image/bracelet.png,bracelet,rshift,1,bracelet,backpack,backpack,bracelet,None,,,,,,,,,0,5,5,30,,,,,,,,,,,,,,,27.733630749979056,27.93492425000295,lshift,0,-0.05080479197204113,,,,,,748226,001,2023-08-16_12h00.01.038,exp_g1,2022.2.5,None,
82.0,l1,f,se,na,../audio/082.wav,,l1_f_se_na_082,,,,,,,../image/mickeymouse.png,../image/spongebob.png,mickeymouse,lshift,1,mickeymouse,spongebob,mickeymouse,spongebob,None,,,,,,,,,0,6,6,21,,,,,,,,,,,,,,,27.965724333073013,28.18418733298313,rshift,0,-0.20074954209849238,,,,,,748226,001,2023-08-16_12h00.01.038,exp_g1,2022.2.5,None,
87.0,l1,f,sp,na,../audio/087.wav,,l1_f_sp_na_087,,,,,,,../image/desk.png,../image/bed.png,bed,rshift,1,bed,desk,desk,bed,None,,,,,,,,,0,7,7,26,,,,,,,,,,,,,,,28.210512040997855,28.43150675005745,lshift,0,-0.24319887498859316,,,,,,748226,001,2023-08-16_12h00.01.038,exp_g1,2022.2.5,None,
18.0,l1,t,es,na,../audio/018.wav,,l1_t_es_na_018,,,,,,,../image/cups.png,../image/napkins.png,napkins,rshift,1,napkins,cups,cups,napkins,None,,,,,,,,,0,8,8,42,,,,,,,,,,,,,,,28.46922445797827,28.680703666061163,lshift,0,-0.1647952499333769,,,,,,748226,001,2023-08-16_12h00.01.038,exp_g1,2022.2.5,None,
88.0,l1,f,sp,na,../audio/088.wav,,l1_f_sp_na_088,,,,,,,../image/book.png,../image/cellphone.png,book,lshift,1,book,cellphone,book,cellphone,None,,,,,,,,,0,9,9,27,,,,,,,,,,,,,,,28.71216741600074,28.917618124978617,lshift,1,-0.15153287502471358,,,,,,748226,001,2023-08-16_12h00.01.038,exp_g1,2022.2.5,None,
63.0,l1,f,en,na,../audio/063.wav,,l1_f_en_na_063,,,,,,,../image/woman.png,../image/man.png,man,rshift,1,man,woman,woman,man,None,,,,,,,,,0,10,10,2,,,,,,,,,,,,,,,28.95016954105813,29.164872708031908,lshift,0,-0.11050662503112108,,,,,,748226,001,2023-08-16_12h00.01.038,exp_g1,2022.2.5,None,
86.0,l1,f,sp,na,../audio/086.wav,,l1_f_sp_na_086,,,,,,,../image/plates.png,../image/glasses.png,plates,lshift,1,plates,glasses,plates,glasses,None,,,,,,,,,0,11,11,25,,,,,,,,,,,,,,,29.195615999982692,29.400941541069187,lshift,1,-0.1680975410854444,,,,,,748226,001,2023-08-16_12h00.01.038,exp_g1,2022.2.5,None,
11.0,l1,t,es,na,../audio/011.wav,,l1_t_es_na_011,,,,,,,../image/armchair.png,../image/bed.png,armchair,lshift,1,armchair,bed,armchair,bed,None,,,,,,,,,0,12,12,35,,,,,,,,,,,,,,,29.44012083299458,29.648214666056447,lshift,1,-0.21202433400321752,,,,,,748226,001,2023-08-16_12h00.01.038,exp_g1,2022.2.5,None,
95.0,l1,f,sp,na,../audio/095.wav,,l1_f_sp_na_095,,,,,,,../image/socks.png,../image/key.png,key,rshift,1,key,socks,socks,key,None,,,,,,,,,0,13,13,34,,,,,,,,,,,,,,,29.679235666058958,29.884295291034505,lshift,0,-0.21738516702316701,,,,,,748226,001,2023-08-16_12h00.01.038,exp_g1,2022.2.5,None,
75.0,l1,f,en,na,../audio/075.wav,,l1_f_en_na_075,,,,,,,../image/dog.png,../image/fish.png,fish,rshift,1,fish,dog,dog,fish,None,,,,,,,,,0,14,14,14,,,,,,,,,,,,,,,29.916618957999162,30.13324316602666,lshift,0,-0.24143370799720287,,,,,,748226,001,2023-08-16_12h00.01.038,exp_g1,2022.2.5,None,
134.0,l1,t,es,f0u,../audio/134.wav,,l1_t_es_f0u_134,,,,,,,../image/basket.png,../image/truck.png,truck,rshift,1,truck,basket,basket,truck,None,,,,,,,,,0,15,15,48,,,,,,,,,,,,,,,30.16514375002589,30.38160937500652,rshift,1,-0.2049928338965401,,,,,,748226,001,2023-08-16_12h00.01.038,exp_g1,2022.2.5,None,
13.0,l1,t,es,na,../audio/013.wav,,l1_t_es_na_013,,,,,,,../image/beer.png,../image/wine.png,beer,lshift,1,beer,wine,beer,wine,None,,,,,,,,,0,16,16,37,,,,,,,,,,,,,,,30.4137897080509,30.630708749988116,rshift,0,-0.24683666694909334,,,,,,748226,001,2023-08-16_12h00.01.038,exp_g1,2022.2.5,None,
73.0,l1,f,en,na,../audio/073.wav,,l1_f_en_na_073,,,,,,,../image/socks.png,../image/tshirt.png,tshirt,rshift,1,tshirt,socks,socks,tshirt,None,,,,,,,,,0,17,17,12,,,,,,,,,,,,,,,30.661305083078332,30.86817037500441,lshift,0,-0.12612712499685585,,,,,,748226,001,2023-08-16_12h00.01.038,exp_g1,2022.2.5,None,
71.0,l1,f,en,na,../audio/071.wav,,l1_f_en_na_071,,,,,,,../image/wallet.png,../image/plane.png,plane,rshift,1,plane,wallet,wallet,plane,None,,,,,,,,,0,18,18,10,,,,,,,,,,,,,,,30.91009274998214,31.11804954102263,rshift,1,-0.03384512499906123,,,,,,748226,001,2023-08-16_12h00.01.038,exp_g1,2022.2.5,None,
92.0,l1,f,sp,na,../audio/092.wav,,l1_f_sp_na_092,,,,,,,../image/armchair.png,../image/dog.png,armchair,lshift,1,armchair,dog,armchair,dog,None,,,,,,,,,0,19,19,31,,,,,,,,,,,,,,,31.151331291068345,31.37006750004366,lshift,1,-0.2206164998933673,,,,,,748226,001,2023-08-16_12h00.01.038,exp_g1,2022.2.5,None,
131.0,l1,t,es,f0u,../audio/131.wav,,l1_t_es_f0u_131,,,,,,,../image/cat.png,../image/flower.png,cat,lshift,1,cat,flower,cat,flower,None,,,,,,,,,0,20,20,45,,,,,,,,,,,,,,,31.409908541012555,31.617639416013844,rshift,0,-0.2303352920571342,,,,,,748226,001,2023-08-16_12h00.01.038,exp_g1,2022.2.5,None,
61.0,l1,f,en,na,../audio/061.wav,,l1_f_en_na_061,,,,,,,../image/cat.png,../image/dog.png,dog,rshift,1,dog,cat,cat,dog,../image/,,,,,,,,,0,21,21,0,,,,,,,,,,,,,,,31.64712691598106,31.864858958055265,rshift,1,-0.2226699999300763,,,,,,748226,001,2023-08-16_12h00.01.038,exp_g1,2022.2.5,None,
16.0,l1,t,es,na,../audio/016.wav,,l1_t_es_na_016,,,,,,,../image/flipflops.png,../image/bag.png,bag,rshift,1,bag,flipflops,flipflops,bag,None,,,,,,,,,0,22,22,40,,,,,,,,,,,,,,,31.904693208052777,32.10073125001509,lshift,0,0.3949880840955302,32.16494220797904,,,,,748226,001,2023-08-16_12h00.01.038,exp_g1,2022.2.5,None,
74.0,l1,f,en,na,../audio/074.wav,,l1_f_en_na_074,,,,,,,../image/boy.png,../image/woman.png,boy,lshift,1,boy,woman,boy,woman,None,,,,,,,,,0,23,23,13,,,,,,,,,,,,,,,32.534570625051856,32.734475166071206,rshift,0,-0.041906500002369285,,,,,,748226,001,2023-08-16_12h00.01.038,exp_g1,2022.2.5,None,
65.0,l1,f,en,na,../audio/065.wav,,l1_f_en_na_065,,,,,,,../image/computer.png,../image/book.png,book,rshift,1,book,computer,computer,book,None,,,,,,,,,0,24,24,4,,,,,,,,,,,,,,,32.76997854106594,32.98143216606695,lshift,0,0.5479287500493228,33.017741916002706,,,,,748226,001,2023-08-16_12h00.01.038,exp_g1,2022.2.5,None,
89.0,l1,f,sp,na,../audio/089.wav,,l1_f_sp_na_089,,,,,,,../image/bed.png,../image/wallet.png,wallet,rshift,1,wallet,bed,bed,wallet,None,,,,,,,,,0,25,25,28,,,,,,,,,,,,,,,33.55969504103996,33.76770866604056,rshift,1,0.28914487501606345,33.800686249975115,,,,,748226,001,2023-08-16_12h00.01.038,exp_g1,2022.2.5,None,
76.0,l1,f,se,na,../audio/076.wav,,l1_f_se_na_076,,,,,,,../image/hotdog.png,../image/burger.png,hotdog,lshift,1,hotdog,burger,hotdog,burger,None,,,,,,,,,0,26,26,15,,,,,,,,,,,,,,,34.107123250025325,34.3146647909889,lshift,1,0.27872304199263453,34.350937374983914,,,,,748226,001,2023-08-16_12h00.01.038,exp_g1,2022.2.5,None,
66.0,l1,f,en,na,../audio/066.wav,,l1_f_en_na_066,,,,,,,../image/bag.png,../image/scarf.png,bag,lshift,1,bag,scarf,bag,scarf,None,,,,,,,,,0,27,27,5,,,,,,,,,,,,,,,34.620666500064544,34.834099582978524,rshift,0,0.6266399580053985,34.867676333058625,,,,,748226,001,2023-08-16_12h00.01.038,exp_g1,2022.2.5,None,
62.0,l1,f,en,na,../audio/062.wav,,l1_f_en_na_062,,,,,,,../image/shoe.png,../image/ring.png,shoe,lshift,1,shoe,ring,shoe,ring,None,,,,,,,,,0,28,28,1,,,,,,,,,,,,,,,35.489958208054304,35.70066308300011,lshift,1,0.6179586671059951,35.734296999988146,,,,,748226,001,2023-08-16_12h00.01.038,exp_g1,2022.2.5,None,
140.0,l1,t,es,f0u,../audio/140.wav,,l1_t_es_f0u_140,,,,,,,../image/ring.png,../image/bracelet.png,bracelet,rshift,1,bracelet,ring,ring,bracelet,None,,,,,,,,,0,29,29,54,,,,,,,,,,,,,,,36.36456154100597,36.581365333055146,rshift,1,0.1874857919756323,36.600268415990286,,,,,748226,001,2023-08-16_12h00.01.038,exp_g1,2022.2.5,None,
83.0,l1,f,se,na,../audio/083.wav,,l1_f_se_na_083,,,,,,,../image/donut.png,../image/burger.png,burger,rshift,1,burger,donut,donut,burger,None,,,,,,,,,0,30,30,22,,,,,,,,,,,,,,,36.82545454101637,37.03144749999046,lshift,0,0.26384895807132125,37.06734508299269,,,,,748226,001,2023-08-16_12h00.01.038,exp_g1,2022.2.5,None,
72.0,l1,f,en,na,../audio/072.wav,,l1_f_en_na_072,,,,,,,../image/dog.png,../image/fish.png,dog,lshift,1,dog,fish,dog,fish,None,,,,,,,,,0,31,31,11,,,,,,,,,,,,,,,37.32421304099262,37.534565082984045,rshift,0,0.2065124170621857,37.567578291054815,,,,,748226,001,2023-08-16_12h00.01.038,exp_g1,2022.2.5,None,
17.0,l1,t,es,na,../audio/017.wav,,l1_t_es_na_017,,,,,,,../image/jug.png,../image/cat.png,jug,lshift,1,jug,cat,jug,cat,None,,,,,,,,,0,32,32,41,,,,,,,,,,,,,,,37.78702083299868,37.99818866606802,lshift,1,0.5484823749866337,38.03410091600381,,,,,748226,001,2023-08-16_12h00.01.038,exp_g1,2022.2.5,None,
139.0,l1,t,es,f0u,../audio/139.wav,,l1_t_es_f0u_139,,,,,,,../image/restaurant.png,../image/hotel.png,restaurant,lshift,1,restaurant,hotel,restaurant,hotel,None,,,,,,,,,0,33,33,53,,,,,,,,,,,,,,,38.57714108307846,38.78330170805566,rshift,0,0.25473916600458324,38.816641458077356,,,,,748226,001,2023-08-16_12h00.01.038,exp_g1,2022.2.5,None,
81.0,l1,f,se,na,../audio/081.wav,,l1_f_se_na_081,,,,,,,../image/boxers.png,../image/sweatpants.png,sweatpants,rshift,1,sweatpants,boxers,boxers,sweatpants,None,,,,,,,,,0,34,34,20,,,,,,,,,,,,,,,39.08557950006798,39.298157458077185,lshift,0,0.40539316600188613,39.33155958307907,,,,,748226,001,2023-08-16_12h00.01.038,exp_g1,2022.2.5,None,
79.0,l1,f,se,na,../audio/079.wav,,l1_f_se_na_079,,,,,,,../image/sweatpants.png,../image/jeans.png,jeans,rshift,1,jeans,sweatpants,sweatpants,jeans,None,,,,,,,,,0,35,35,18,,,,,,,,,,,,,,,39.72624483297113,39.95091000001412,rshift,1,0.17043816694058478,39.96721662499476,,,,,748226,001,2023-08-16_12h00.01.038,exp_g1,2022.2.5,None,
20.0,l1,t,es,na,../audio/020.wav,,l1_t_es_na_020,,,,,,,../image/cellphone.png,../image/backpack.png,backpack,rshift,1,backpack,cellphone,cellphone,backpack,None,,,,,,,,,0,36,36,44,,,,,,,,,,,,,,,40.167673250078224,40.38148695800919,lshift,0,0.3348055420210585,40.41479299997445,,,,,748226,001,2023-08-16_12h00.01.038,exp_g1,2022.2.5,None,
12.0,l1,t,es,na,../audio/012.wav,,l1_t_es_na_012,,,,,,,../image/newspaper.png,../image/book.png,book,rshift,1,book,newspaper,newspaper,book,None,,,,,,,,,0,37,37,36,,,,,,,,,,,,,,,40.756059249979444,40.96741237503011,rshift,1,0.2091857090126723,41.000769458012655,,,,,748226,001,2023-08-16_12h00.01.038,exp_g1,2022.2.5,None,
77.0,l1,f,se,na,../audio/077.wav,,l1_f_se_na_077,,,,,,,../image/mashedpotatoes.png,../image/donut.png,donut,rshift,1,donut,mashedpotatoes,mashedpotatoes,donut,None,,,,,,,,,0,38,38,16,,,,,,,,,,,,,,,41.218184540979564,41.43133812502492,lshift,0,0.20680816599633545,41.464565915986896,,,,,748226,001,2023-08-16_12h00.01.038,exp_g1,2022.2.5,None,
94.0,l1,f,sp,na,../audio/094.wav,,l1_f_sp_na_094,,,,,,,../image/beer.png,../image/horchata.png,beer,lshift,1,beer,horchata,beer,horchata,None,,,,,,,,,0,39,39,33,,,,,,,,,,,,,,,41.68057241605129,41.885968832997605,rshift,0,-0.01898270903620869,,,,,,748226,001,2023-08-16_12h00.01.038,exp_g1,2022.2.5,None,
90.0,l1,f,sp,na,../audio/090.wav,,l1_f_sp_na_090,,,,,,,../image/bag.png,../image/bottle.png,bag,lshift,1,bag,bottle,bag,bottle,None,,,,,,,,,0,40,40,29,,,,,,,,,,,,,,,41.91503949998878,42.13470345805399,lshift,1,0.3399053340544924,42.151060500065796,,,,,748226,001,2023-08-16_12h00.01.038,exp_g1,2022.2.5,None,
67.0,l1,f,en,na,../audio/067.wav,,l1_f_en_na_067,,,,,,,../image/beer.png,../image/glasses.png,glasses,rshift,1,glasses,beer,beer,glasses,None,,,,,,,,,0,41,41,6,,,,,,,,,,,,,,,42.51556645799428,42.73084733297583,rshift,1,0.25842829199973494,42.764416499994695,,,,,748226,001,2023-08-16_12h00.01.038,exp_g1,2022.2.5,None,
136.0,l1,t,es,f0u,../audio/136.wav,,l1_t_es_f0u_136,,,,,,,../image/city.png,../image/village.png,village,rshift,1,village,city,city,village,None,,,,,,,,,0,42,42,50,,,,,,,,,,,,,,,43.03533620806411,43.23420000006445,lshift,0,0.3266828340711072,43.28154716605786,,,,,748226,001,2023-08-16_12h00.01.038,exp_g1,2022.2.5,None,
135.0,l1,t,es,f0u,../audio/135.wav,,l1_t_es_f0u_135,,,,,,,../image/flipflops.png,../image/flower.png,flipflops,lshift,1,flipflops,flower,flipflops,flower,None,,,,,,,,,0,43,43,49,,,,,,,,,,,,,,,43.59898070804775,43.80129779106937,rshift,0,0.19935875001829118,43.83379150007386,,,,,748226,001,2023-08-16_12h00.01.038,exp_g1,2022.2.5,None,
80.0,l1,f,se,na,../audio/080.wav,,l1_f_se_na_080,,,,,,,../image/mouse.png,../image/rat.png,mouse,lshift,1,mouse,rat,mouse,rat,None,,,,,,,,,0,44,44,19,,,,,,,,,,,,,,,44.0469937910093,44.25044395797886,lshift,1,0.20670300000347197,44.28422762500122,,,,,748226,001,2023-08-16_12h00.01.038,exp_g1,2022.2.5,None,
138.0,l1,t,es,f0u,../audio/138.wav,,l1_t_es_f0u_138,,,,,,,../image/pants.png,../image/shirt.png,shirt,rshift,1,shirt,pants,pants,shirt,None,,,,,,,,,0,45,45,52,,,,,,,,,,,,,,,44.50100899999961,44.714823915972374,rshift,1,0.05224700004328042,44.7481545410119,,,,,748226,001,2023-08-16_12h00.01.038,exp_g1,2022.2.5,None,
85.0,l1,f,se,na,../audio/085.wav,,l1_f_se_na_085,,,,,,,../image/loafers.png,../image/sneakers.png,sneakers,rshift,1,sneakers,loafers,loafers,sneakers,None,,,,,,,,,0,46,46,24,,,,,,,,,,,,,,,44.81118958303705,45.014754333067685,lshift,0,-0.021630417089909315,,,,,,748226,001,2023-08-16_12h00.01.038,exp_g1,2022.2.5,None,
15.0,l1,t,es,na,../audio/015.wav,,l1_t_es_na_015,,,,,,,../image/glasses.png,../image/jacket.png,glasses,lshift,1,glasses,jacket,glasses,jacket,None,,,,,,,,,0,47,47,39,,,,,,,,,,,,,,,45.04558983305469,45.263862875057384,rshift,0,-0.09686466597486287,,,,,,748226,001,2023-08-16_12h00.01.038,exp_g1,2022.2.5,None,
19.0,l1,t,es,na,../audio/019.wav,,l1_t_es_na_019,,,,,,,../image/boy.png,../image/dog.png,boy,lshift,1,boy,dog,boy,dog,None,,,,,,,,,0,48,48,43,,,,,,,,,,,,,,,45.28765562502667,45.500846249982715,lshift,1,-0.17268979107029736,,,,,,748226,001,2023-08-16_12h00.01.038,exp_g1,2022.2.5,None,
69.0,l1,f,en,na,../audio/069.wav,,l1_f_en_na_069,,,,,,,../image/bag.png,../image/shirt.png,shirt,rshift,1,shirt,bag,bag,shirt,None,,,,,,,,,0,49,49,8,,,,,,,,,,,,,,,45.52948191598989,45.74818329105619,lshift,0,-0.16782674996647984,,,,,,748226,001,2023-08-16_12h00.01.038,exp_g1,2022.2.5,None,
70.0,l1,f,en,na,../audio/070.wav,,l1_f_en_na_070,,,,,,,../image/computer.png,../image/bed.png,computer,lshift,1,computer,bed,computer,bed,None,,,,,,,,,0,50,50,9,,,,,,,,,,,,,,,45.78621024999302,45.99728887504898,lshift,1,-0.18692349991761148,,,,,,748226,001,2023-08-16_12h00.01.038,exp_g1,2022.2.5,None,
68.0,l1,f,en,na,../audio/068.wav,,l1_f_en_na_068,,,,,,,../image/socks.png,../image/book.png,socks,lshift,1,socks,book,socks,book,None,,,,,,,,,0,51,51,7,,,,,,,,,,,,,,,46.02668000000995,46.23573820805177,lshift,1,-0.22125158307608217,,,,,,748226,001,2023-08-16_12h00.01.038,exp_g1,2022.2.5,None,
93.0,l1,f,sp,na,../audio/093.wav,,l1_f_sp_na_093,,,,,,,../image/boy.png,../image/book.png,book,rshift,1,book,boy,boy,book,None,,,,,,,,,0,52,52,32,,,,,,,,,,,,,,,46.2661810410209,46.484195332974195,rshift,1,-0.18020920897834003,,,,,,748226,001,2023-08-16_12h00.01.038,exp_g1,2022.2.5,None,
14.0,l1,t,es,na,../audio/014.wav,,l1_t_es_na_014,,,,,,,../image/book.png,../image/key.png,key,rshift,1,key,book,book,key,None,,,,,,,,,0,53,53,38,,,,,,,,,,,,,,,46.5070640000049,46.73397883307189,rshift,1,-0.2267685419647023,,,,,,748226,001,2023-08-16_12h00.01.038,exp_g1,2022.2.5,None,
84.0,l1,f,se,na,../audio/084.wav,,l1_f_se_na_084,,,,,,,../image/penthouse.png,../image/rocket.png,penthouse,lshift,1,penthouse,rocket,penthouse,rocket,None,,,,,,,,,0,54,54,23,,,,,,,,,,,,,,,46.76824254100211,46.981553707970306,lshift,1,-0.18621183303184807,,,,,,748226,001,2023-08-16_12h00.01.038,exp_g1,2022.2.5,None,
,,,,,,,,,,,,,,,,,,,,,,,,,,,,,,,,,,,,,,,,,,,,,,,,,,,,,,,,48.19394912500866,48.38421404105611,48.434852791018784,49.15141937468822,,,,,,,
