participant,session,date,expName,psychopyVersion,OS,frameRate,exp1_trial_key.keys,exp1_trial_key.rt,exp1_trial_loop.thisRepN,exp1_trial_loop.thisTrialN,exp1_trial_loop.thisN,exp1_trial_loop.thisIndex,exp1_trial_loop.ran,num,list,cond,lang,type,sound_dir,phr,sent_code,mat,mat_num,emb_num,emb,cut,mat_f0_c,left,right,correct_img,correct_key,exp1_retrial.thisRepN,exp1_retrial.thisTrialN,exp1_retrial.thisN,exp1_retrial.thisIndex,exp1_retrial.ran,exp1_key.keys,exp1_key.corr,exp1_loop.thisRepN,exp1_loop.thisTrialN,exp1_loop.thisN,exp1_loop.thisIndex,exp1_loop.ran,exp_num,image,image_alt,left_img,right_img,image_dir
HLS_test_1,001,2023-10-14_08h27.38.392,exp_g1,2022.2.5,MacIntel,60.0024001,,,,,,,,,,,,,,,,,,,,,,,,,,,,,,,,,,,,,,,,,,,
HLS_test_1,001,2023-10-14_08h27.38.392,exp_g1,2022.2.5,MacIntel,60.0024001,"[""lshift""]",[1.252299999997014],0,0,0,0,1,tr1,lt,tr,en,na,practice_trial/audio/tr1.wav,Where are your kids?,lt_tr_en_na_tr1,-,-,-,-,-,-,image/kids.png,image/plates.png,kids,lshift,,,,,,,,,,,,,,,,,,
HLS_test_1,001,2023-10-14_08h27.38.392,exp_g1,2022.2.5,MacIntel,60.0024001,"[""lshift""]",[3.1437999999970216],0,1,1,1,1,tr2,lt,tr,en,na,practice_trial/audio/tr2.wav,Who is buying my car?,lt_tr_en_na_tr2,-,-,-,-,-,-,image/bag.png,image/car.png,car,rshift,,,,,,,,,,,,,,,,,,
HLS_test_1,001,2023-10-14_08h27.38.392,exp_g1,2022.2.5,MacIntel,60.0024001,,,0,2,2,2,1,tr3,lt,tr,sp,na,practice_trial/audio/tr3.wav,¿Dónde está mi perro?,lt_tr_sp_na_tr3,-,-,-,-,-,-,image/dog.png,image/grandma.png,dog,lshift,,,,,,,,,,,,,,,,,,
HLS_test_1,001,2023-10-14_08h27.38.392,exp_g1,2022.2.5,MacIntel,60.0024001,"[""lshift""]",[0.2577000000029841],0,3,3,3,1,tr4,lt,tr,sp,na,practice_trial/audio/tr4.wav,¿De quién es la bolsa?,lt_tr_sp_na_tr4,-,-,-,-,-,-,image/shirt.png,image/bag.png,bag,rshift,,,,,,,,,,,,,,,,,,
HLS_test_1,001,2023-10-14_08h27.38.392,exp_g1,2022.2.5,MacIntel,60.0024001,"[""lshift""]",[4.239399999991058],0,4,4,4,1,tr5,lt,tr,se,na,practice_trial/audio/tr5.wav,¿Dónde encontraste sus donuts?,lt_tr_se_na_tr5,-,-,-,-,-,-,image/donut.png,image/cups.png,donut,lshift,,,,,,,,,,,,,,,,,,
HLS_test_1,001,2023-10-14_08h27.38.392,exp_g1,2022.2.5,MacIntel,60.0024001,"[""lshift""]",[1.371200000002979],0,5,5,5,1,tr6,lt,tr,se,na,practice_trial/audio/tr6.wav,¿Cuándo compraste tu sweater?,lt_tr_se_na_tr6,-,-,-,-,-,-,image/chair.png,image/sweater.png,sweater,rshift,,,,,,,,,,,,,,,,,,
HLS_test_1,001,2023-10-14_08h27.38.392,exp_g1,2022.2.5,MacIntel,60.0024001,,,0,6,6,6,1,tr7,lt,tr,es,na,practice_trial/audio/tr7.wav,Why do you have my camisa?,lt_tr_es_na_tr7,-,-,-,-,-,-,image/shirt.png,image/wallet.png,shirt,lshift,,,,,,,,,,,,,,,,,,
HLS_test_1,001,2023-10-14_08h27.38.392,exp_g1,2022.2.5,MacIntel,60.0024001,"[""lshift""]",[1.1262999999970162],0,7,7,7,1,tr8,lt,tr,es,na,practice_trial/audio/tr8.wav,Where did you find his chanclas?,lt_tr_es_na_tr8,-,-,-,-,-,-,image/key.png,image/flipflops.png,flipflops,rshift,,,,,,,,,,,,,,,,,,
HLS_test_1,001,2023-10-14_08h27.38.392,exp_g1,2022.2.5,MacIntel,60.0024001,,,,,,,,,,,,,,,,,,,,,,,,,,0,0,0,0,1,,,,,,,,,,,,,
HLS_test_1,001,2023-10-14_08h27.38.392,exp_g1,2022.2.5,MacIntel,60.0024001,"[""lshift""]",[0.69910000000894],0,0,0,0,1,tr1,lt,tr,en,na,practice_trial/audio/tr1.wav,Where are your kids?,lt_tr_en_na_tr1,-,-,-,-,-,-,image/kids.png,image/plates.png,kids,lshift,,,,,,,,,,,,,,,,,,
HLS_test_1,001,2023-10-14_08h27.38.392,exp_g1,2022.2.5,MacIntel,60.0024001,"[""lshift""]",[4.476499999999987],0,1,1,1,1,tr2,lt,tr,en,na,practice_trial/audio/tr2.wav,Who is buying my car?,lt_tr_en_na_tr2,-,-,-,-,-,-,image/bag.png,image/car.png,car,rshift,,,,,,,,,,,,,,,,,,
HLS_test_1,001,2023-10-14_08h27.38.392,exp_g1,2022.2.5,MacIntel,60.0024001,"[""rshift""]",[0.11770000000298353],0,2,2,2,1,tr3,lt,tr,sp,na,practice_trial/audio/tr3.wav,¿Dónde está mi perro?,lt_tr_sp_na_tr3,-,-,-,-,-,-,image/dog.png,image/grandma.png,dog,lshift,,,,,,,,,,,,,,,,,,
HLS_test_1,001,2023-10-14_08h27.38.392,exp_g1,2022.2.5,MacIntel,60.0024001,"[""lshift""]",[0.28790000000596194],0,3,3,3,1,tr4,lt,tr,sp,na,practice_trial/audio/tr4.wav,¿De quién es la bolsa?,lt_tr_sp_na_tr4,-,-,-,-,-,-,image/shirt.png,image/bag.png,bag,rshift,,,,,,,,,,,,,,,,,,
HLS_test_1,001,2023-10-14_08h27.38.392,exp_g1,2022.2.5,MacIntel,60.0024001,"[""rshift""]",[0.2875000000000085],0,4,4,4,1,tr5,lt,tr,se,na,practice_trial/audio/tr5.wav,¿Dónde encontraste sus donuts?,lt_tr_se_na_tr5,-,-,-,-,-,-,image/donut.png,image/cups.png,donut,lshift,,,,,,,,,,,,,,,,,,
HLS_test_1,001,2023-10-14_08h27.38.392,exp_g1,2022.2.5,MacIntel,60.0024001,"[""lshift""]",[0.3745000000000118],0,5,5,5,1,tr6,lt,tr,se,na,practice_trial/audio/tr6.wav,¿Cuándo compraste tu sweater?,lt_tr_se_na_tr6,-,-,-,-,-,-,image/chair.png,image/sweater.png,sweater,rshift,,,,,,,,,,,,,,,,,,
HLS_test_1,001,2023-10-14_08h27.38.392,exp_g1,2022.2.5,MacIntel,60.0024001,"[""rshift""]",[0.22560000000893865],0,6,6,6,1,tr7,lt,tr,es,na,practice_trial/audio/tr7.wav,Why do you have my camisa?,lt_tr_es_na_tr7,-,-,-,-,-,-,image/shirt.png,image/wallet.png,shirt,lshift,,,,,,,,,,,,,,,,,,
HLS_test_1,001,2023-10-14_08h27.38.392,exp_g1,2022.2.5,MacIntel,60.0024001,"[""lshift""]",[0.28559999999403374],0,7,7,7,1,tr8,lt,tr,es,na,practice_trial/audio/tr8.wav,Where did you find his chanclas?,lt_tr_es_na_tr8,-,-,-,-,-,-,image/key.png,image/flipflops.png,flipflops,rshift,,,,,,,,,,,,,,,,,,
HLS_test_1,001,2023-10-14_08h27.38.392,exp_g1,2022.2.5,MacIntel,60.0024001,,,,,,,,,,,,,,,,,,,,,,,,,,,,,,,,,,,,,,,,,,,
HLS_test_1,001,2023-10-14_08h27.38.392,exp_g1,2022.2.5,MacIntel,60.0024001,,,,,,,,090,l1,f,sp,na,audio/090.wav,,l1_f_sp_na_090,,,,,,,image/bag.png,image/bottle.png,bag,lshift,,,,,,,0,0,0,0,29,1,1,bag,bottle,bag,bottle,
