num,list,cond,lang,type,sound_dir,phr,sent_code,mat,mat_num,emb_num,emb,cut,mat_f0_c,left,right,correct_img,correct_key,exp_num,image,image_alt,left_img,right_img,image_dir,cs,exp1_retrial.thisRepN,exp1_retrial.thisTrialN,exp1_retrial.thisN,exp1_retrial.thisIndex,exp1_trial_loop.thisRepN,exp1_trial_loop.thisTrialN,exp1_trial_loop.thisN,exp1_trial_loop.thisIndex,exp1_loop.thisRepN,exp1_loop.thisTrialN,exp1_loop.thisN,exp1_loop.thisIndex,exp2_retrial.thisRepN,exp2_retrial.thisTrialN,exp2_retrial.thisN,exp2_retrial.thisIndex,exp2_trial_loop.thisRepN,exp2_trial_loop.thisTrialN,exp2_trial_loop.thisN,exp2_trial_loop.thisIndex,exp2_loop.thisRepN,exp2_loop.thisTrialN,exp2_loop.thisN,exp2_loop.thisIndex,exp1_trial_key.started,exp1_trial_sound.started,exp1_trial_key.keys,exp1_trial_key.rt,exp1_key.started,exp1_key.keys,exp1_key.corr,exp1_key.rt,exp1_sound.started,exp2_trial_key.started,exp2_trial_sound.started,exp2_trial_key.keys,exp2_trial_key.rt,exp2_key.started,exp2_sound.started,exp2_key.keys,exp2_key.rt,participant,session,date,expName,psychopyVersion,frameRate,
tr1,lt,tr,en,na,../practice_trial/audio/tr1.wav,Where are your kids?,lt_tr_en_na_tr1,-,-,-,-,-,-,../image/kids.png,../image/plates.png,kids,lshift,,,,,,,,0,0,0,0,0,0,0,0,,,,,,,,,,,,,,,,,67.66404312500526,68.60708495866517,['lshift'],[2.8233339579965104],,,,,,,,,,,,,,AJ,001,2023-04-05_13h35.33.691,exp_g1,2022.2.5,None,
tr2,lt,tr,en,na,../practice_trial/audio/tr2.wav,Who is buying my car?,lt_tr_en_na_tr2,-,-,-,-,-,-,../image/bag.png,../image/car.png,car,rshift,,,,,,,,0,0,0,0,0,1,1,1,,,,,,,,,,,,,,,,,70.53261575000215,71.49674212566994,['rshift'],[2.558058123999217],,,,,,,,,,,,,,AJ,001,2023-04-05_13h35.33.691,exp_g1,2022.2.5,None,
tr3,lt,tr,sp,na,../practice_trial/audio/tr3.wav,¿Dónde está mi perro?,lt_tr_sp_na_tr3,-,-,-,-,-,-,../image/dog.png,../image/grandma.png,dog,lshift,,,,,,,,0,0,0,0,0,2,2,2,,,,,,,,,,,,,,,,,73.13399341700278,74.09675387567064,['lshift'],[2.3239182489996892],,,,,,,,,,,,,,AJ,001,2023-04-05_13h35.33.691,exp_g1,2022.2.5,None,
tr4,lt,tr,sp,na,../practice_trial/audio/tr4.wav,¿De quién es la bolsa?,lt_tr_sp_na_tr4,-,-,-,-,-,-,../image/shirt.png,../image/bag.png,bag,rshift,,,,,,,,0,0,0,0,0,3,3,3,,,,,,,,,,,,,,,,,75.50256220900337,76.47362529166664,['rshift'],[2.599969625007361],,,,,,,,,,,,,,AJ,001,2023-04-05_13h35.33.691,exp_g1,2022.2.5,None,
tr5,lt,tr,se,na,../practice_trial/audio/tr5.wav,¿Dónde encontraste sus donuts?,lt_tr_se_na_tr5,-,-,-,-,-,-,../image/donut.png,../image/cups.png,donut,lshift,,,,,,,,0,0,0,0,0,4,4,4,,,,,,,,,,,,,,,,,78.1491967500042,79.11413137567094,['lshift'],[3.201085000000603],,,,,,,,,,,,,,AJ,001,2023-04-05_13h35.33.691,exp_g1,2022.2.5,None,
tr6,lt,tr,se,na,../practice_trial/audio/tr6.wav,¿Cuándo compraste tu sweater?,lt_tr_se_na_tr6,-,-,-,-,-,-,../image/chair.png,../image/sweater.png,sweater,rshift,,,,,,,,0,0,0,0,0,5,5,5,,,,,,,,,,,,,,,,,81.39545666699996,82.36155145866748,['rshift'],[2.8730974570062244],,,,,,,,,,,,,,AJ,001,2023-04-05_13h35.33.691,exp_g1,2022.2.5,None,
tr7,lt,tr,es,na,../practice_trial/audio/tr7.wav,Why do you have my camisa?,lt_tr_es_na_tr7,-,-,-,-,-,-,../image/shirt.png,../image/wallet.png,shirt,lshift,,,,,,,,0,0,0,0,0,6,6,6,,,,,,,,,,,,,,,,,84.31675974999962,85.28052587566732,['lshift'],[3.026188624004135],,,,,,,,,,,,,,AJ,001,2023-04-05_13h35.33.691,exp_g1,2022.2.5,None,
tr8,lt,tr,es,na,../practice_trial/audio/tr8.wav,Where did you find his chanclas?,lt_tr_es_na_tr8,-,-,-,-,-,-,../image/key.png,../image/flipflops.png,flipflops,rshift,,,,,,,,0,0,0,0,0,7,7,7,,,,,,,,,,,,,,,,,87.38691025000298,88.3473455836686,['rshift'],[2.604242374000023],,,,,,,,,,,,,,AJ,001,2023-04-05_13h35.33.691,exp_g1,2022.2.5,None,
,,,,,,,,,,,,,,,,,,,,,,,,,0,0,0,0,,,,,,,,,,,,,,,,,,,,,,,,,,,,,,,,,,,,,,AJ,001,2023-04-05_13h35.33.691,exp_g1,2022.2.5,None,
74.0,l1,f,en,na,../audio/074.wav,,l1_f_en_na_074,,,,,,,../image/boy.png,../image/woman.png,boy,lshift,1,boy,woman,boy,woman,None,,,,,,,,,,0,0,0,13,,,,,,,,,,,,,,,,,105.12286895899888,lshift,1,-0.4475340839999262,,,,,,,,,,AJ,001,2023-04-05_13h35.33.691,exp_g1,2022.2.5,None,
79.0,l1,f,se,na,../audio/079.wav,,l1_f_se_na_079,,,,,,,../image/sweatpants.png,../image/jeans.png,jeans,rshift,1,jeans,sweatpants,sweatpants,jeans,None,,,,,,,,,,0,1,1,18,,,,,,,,,,,,,,,,,105.14461558400217,None,0,,106.1290175006691,,,,,,,,,AJ,001,2023-04-05_13h35.33.691,exp_g1,2022.2.5,None,
17.0,l1,t,es,na,../audio/017.wav,,l1_t_es_na_017,,,,,,,../image/jug.png,../image/cat.png,jug,rshift,1,jug,cat,jug,cat,None,,,,,,,,,,0,2,2,41,,,,,,,,,,,,,,,,,110.17187583399937,lshift,0,3.192526540995459,111.12285233366516,,,,,,,,,AJ,001,2023-04-05_13h35.33.691,exp_g1,2022.2.5,None,
90.0,l1,f,sp,na,../audio/090.wav,,l1_f_sp_na_090,,,,,,,../image/bag.png,../image/bottle.png,bag,rshift,1,bag,bottle,bag,bottle,None,,,,,,,,,,0,3,3,29,,,,,,,,,,,,,,,,,113.41197237500455,lshift,0,3.2195916660057264,114.37837229166713,,,,,,,,,AJ,001,2023-04-05_13h35.33.691,exp_g1,2022.2.5,None,
78.0,l1,f,se,na,../audio/078.wav,,l1_f_se_na_078,,,,,,,../image/airpods.png,../image/joycons.png,airpods,lshift,1,airpods,joycons,airpods,joycons,None,,,,,,,,,,0,4,4,17,,,,,,,,,,,,,,,,,116.67589687500003,lshift,1,2.6887926240015076,117.6473612506709,,,,,,,,,AJ,001,2023-04-05_13h35.33.691,exp_g1,2022.2.5,None,
92.0,l1,f,sp,na,../audio/092.wav,,l1_f_sp_na_092,,,,,,,../image/armchair.png,../image/dog.png,armchair,rshift,1,armchair,dog,armchair,dog,None,,,,,,,,,,0,5,5,31,,,,,,,,,,,,,,,,,119.42173750000075,lshift,0,2.257144708004489,120.3734124166697,,,,,,,,,AJ,001,2023-04-05_13h35.33.691,exp_g1,2022.2.5,None,
83.0,l1,f,se,na,../audio/083.wav,,l1_f_se_na_083,,,,,,,../image/donut.png,../image/burger.png,burger,rshift,1,burger,donut,donut,burger,None,,,,,,,,,,0,6,6,22,,,,,,,,,,,,,,,,,121.72880987499957,rshift,1,2.378042041003937,122.68997437566965,,,,,,,,,AJ,001,2023-04-05_13h35.33.691,exp_g1,2022.2.5,None,
77.0,l1,f,se,na,../audio/077.wav,,l1_f_se_na_077,,,,,,,../image/mashedpotatoes.png,../image/donut.png,donut,rshift,1,donut,mashedpotatoes,mashedpotatoes,donut,None,,,,,,,,,,0,7,7,16,,,,,,,,,,,,,,,,,124.15716337499907,rshift,1,2.2868435000054887,125.11462845866869,,,,,,,,,AJ,001,2023-04-05_13h35.33.691,exp_g1,2022.2.5,None,
68.0,l1,f,en,na,../audio/068.wav,,l1_f_en_na_068,,,,,,,../image/socks.png,../image/book.png,socks,lshift,1,socks,book,socks,book,None,,,,,,,,,,0,8,8,7,,,,,,,,,,,,,,,,,126.4902346250019,lshift,1,3.1729046239997842,127.45658175067025,,,,,,,,,AJ,001,2023-04-05_13h35.33.691,exp_g1,2022.2.5,None,
14.0,l1,t,es,na,../audio/014.wav,,l1_t_es_na_014,,,,,,,../image/book.png,../image/key.png,key,lshift,1,key,book,book,key,None,,,,,,,,,,0,9,9,38,,,,,,,,,,,,,,,,,129.70323687500058,rshift,0,2.6045698750021984,130.6732533336656,,,,,,,,,AJ,001,2023-04-05_13h35.33.691,exp_g1,2022.2.5,None,
61.0,l1,f,en,na,../audio/061.wav,,l1_f_en_na_061,,,,,,,../image/cat.png,../image/dog.png,dog,rshift,1,dog,cat,cat,dog,../image/,,,,,,,,,,0,10,10,0,,,,,,,,,,,,,,,,,132.3603061670001,rshift,1,2.384889374996419,133.3234079166689,,,,,,,,,AJ,001,2023-04-05_13h35.33.691,exp_g1,2022.2.5,None,
85.0,l1,f,se,na,../audio/085.wav,,l1_f_se_na_085,,,,,,,../image/loafers.png,../image/sneakers.png,sneakers,rshift,1,sneakers,loafers,loafers,sneakers,None,,,,,,,,,,0,11,11,24,,,,,,,,,,,,,,,,,134.79332916700514,rshift,1,3.415184748999309,135.75641541666508,,,,,,,,,AJ,001,2023-04-05_13h35.33.691,exp_g1,2022.2.5,None,
13.0,l1,t,es,na,../audio/013.wav,,l1_t_es_na_013,,,,,,,../image/beer.png,../image/wine.png,beer,rshift,1,beer,wine,beer,wine,None,,,,,,,,,,0,12,12,37,,,,,,,,,,,,,,,,,138.25727387500228,lshift,0,3.066554500001075,139.22316975066886,,,,,,,,,AJ,001,2023-04-05_13h35.33.691,exp_g1,2022.2.5,None,
86.0,l1,f,sp,na,../audio/086.wav,,l1_f_sp_na_086,,,,,,,../image/plates.png,../image/glasses.png,plates,lshift,1,plates,glasses,plates,glasses,None,,,,,,,,,,0,13,13,25,,,,,,,,,,,,,,,,,141.3673187500026,lshift,1,2.4596148330019787,142.33851700066978,,,,,,,,,AJ,001,2023-04-05_13h35.33.691,exp_g1,2022.2.5,None,
140.0,l1,t,es,f0u,../audio/140.wav,,l1_t_es_f0u_140,,,,,,,../image/ring.png,../image/bracelet.png,bracelet,rshift,1,bracelet,ring,ring,bracelet,None,,,,,,,,,,0,14,14,54,,,,,,,,,,,,,,,,,143.86902399999963,rshift,1,3.1310785410023527,144.8302673756664,,,,,,,,,AJ,001,2023-04-05_13h35.33.691,exp_g1,2022.2.5,None,
71.0,l1,f,en,na,../audio/071.wav,,l1_f_en_na_071,,,,,,,../image/wallet.png,../image/plane.png,plane,rshift,1,plane,wallet,wallet,plane,None,,,,,,,,,,0,15,15,10,,,,,,,,,,,,,,,,,147.0480029590035,rshift,1,3.1114221659954637,148.01294875066768,,,,,,,,,AJ,001,2023-04-05_13h35.33.691,exp_g1,2022.2.5,None,
88.0,l1,f,sp,na,../audio/088.wav,,l1_f_sp_na_088,,,,,,,../image/book.png,../image/cellphone.png,book,rshift,1,book,cellphone,book,cellphone,None,,,,,,,,,,0,16,16,27,,,,,,,,,,,,,,,,,150.2071420420034,lshift,0,2.372083583002677,151.1730106666694,,,,,,,,,AJ,001,2023-04-05_13h35.33.691,exp_g1,2022.2.5,None,
139.0,l1,t,es,f0u,../audio/139.wav,,l1_t_es_f0u_139,,,,,,,../image/restaurant.png,../image/hotel.png,restaurant,rshift,1,restaurant,hotel,restaurant,hotel,None,,,,,,,,,,0,17,17,53,,,,,,,,,,,,,,,,,152.6281142500011,lshift,0,3.0843435830029193,153.5897482086696,,,,,,,,,AJ,001,2023-04-05_13h35.33.691,exp_g1,2022.2.5,None,
20.0,l1,t,es,na,../audio/020.wav,,l1_t_es_na_020,,,,,,,../image/cellphone.png,../image/backpack.png,backpack,lshift,1,backpack,cellphone,cellphone,backpack,None,,,,,,,,,,0,18,18,44,,,,,,,,,,,,,,,,,155.75970866699936,rshift,0,2.730648040997039,156.7231136666708,,,,,,,,,AJ,001,2023-04-05_13h35.33.691,exp_g1,2022.2.5,None,
16.0,l1,t,es,na,../audio/016.wav,,l1_t_es_na_016,,,,,,,../image/flipflops.png,../image/bag.png,bag,lshift,1,bag,flipflops,flipflops,bag,None,,,,,,,,,,0,19,19,40,,,,,,,,,,,,,,,,,158.53591212500032,rshift,0,3.3433507489971817,159.50635391666972,,,,,,,,,AJ,001,2023-04-05_13h35.33.691,exp_g1,2022.2.5,None,
15.0,l1,t,es,na,../audio/015.wav,,l1_t_es_na_015,,,,,,,../image/glasses.png,../image/jacket.png,glasses,rshift,1,glasses,jacket,glasses,jacket,None,,,,,,,,,,0,20,20,39,,,,,,,,,,,,,,,,,161.9242857499994,lshift,0,2.5165998739976203,162.88971700067148,,,,,,,,,AJ,001,2023-04-05_13h35.33.691,exp_g1,2022.2.5,None,
80.0,l1,f,se,na,../audio/080.wav,,l1_f_se_na_080,,,,,,,../image/mouse.png,../image/rat.png,mouse,lshift,1,mouse,rat,mouse,rat,None,,,,,,,,,,0,21,21,19,,,,,,,,,,,,,,,,,164.48876258399832,rshift,0,2.418417540997325,165.45633220866537,,,,,,,,,AJ,001,2023-04-05_13h35.33.691,exp_g1,2022.2.5,None,
134.0,l1,t,es,f0u,../audio/134.wav,,l1_t_es_f0u_134,,,,,,,../image/basket.png,../image/truck.png,truck,lshift,1,truck,basket,basket,truck,None,,,,,,,,,,0,22,22,48,,,,,,,,,,,,,,,,,166.95702958400216,rshift,0,3.307564208000258,167.91264595866622,,,,,,,,,AJ,001,2023-04-05_13h35.33.691,exp_g1,2022.2.5,None,
95.0,l1,f,sp,na,../audio/095.wav,,l1_f_sp_na_095,,,,,,,../image/socks.png,../image/key.png,key,lshift,1,key,socks,socks,key,None,,,,,,,,,,0,23,23,34,,,,,,,,,,,,,,,,,170.31282108400046,rshift,0,2.1675363749964163,171.27937358367151,,,,,,,,,AJ,001,2023-04-05_13h35.33.691,exp_g1,2022.2.5,None,
131.0,l1,t,es,f0u,../audio/131.wav,,l1_t_es_f0u_131,,,,,,,../image/cat.png,../image/flower.png,cat,rshift,1,cat,flower,cat,flower,None,,,,,,,,,,0,24,24,45,,,,,,,,,,,,,,,,,172.53306537499884,lshift,0,2.375052623996453,173.48974712566658,,,,,,,,,AJ,001,2023-04-05_13h35.33.691,exp_g1,2022.2.5,None,
67.0,l1,f,en,na,../audio/067.wav,,l1_f_en_na_067,,,,,,,../image/beer.png,../image/glasses.png,glasses,rshift,1,glasses,beer,beer,glasses,None,,,,,,,,,,0,25,25,6,,,,,,,,,,,,,,,,,174.95122004199948,rshift,1,2.5672321660022135,175.92314500066666,,,,,,,,,AJ,001,2023-04-05_13h35.33.691,exp_g1,2022.2.5,None,
63.0,l1,f,en,na,../audio/063.wav,,l1_f_en_na_063,,,,,,,../image/woman.png,../image/man.png,man,rshift,1,man,woman,woman,man,None,,,,,,,,,,0,26,26,2,,,,,,,,,,,,,,,,,177.5659859590014,rshift,1,2.3921886660027667,178.52939337566593,,,,,,,,,AJ,001,2023-04-05_13h35.33.691,exp_g1,2022.2.5,None,
94.0,l1,f,sp,na,../audio/094.wav,,l1_f_sp_na_094,,,,,,,../image/beer.png,../image/horchata.png,beer,rshift,1,beer,horchata,beer,horchata,None,,,,,,,,,,0,27,27,33,,,,,,,,,,,,,,,,,180.00760441699822,lshift,0,3.215270041000622,180.97154275067103,,,,,,,,,AJ,001,2023-04-05_13h35.33.691,exp_g1,2022.2.5,None,
135.0,l1,t,es,f0u,../audio/135.wav,,l1_t_es_f0u_135,,,,,,,../image/flipflops.png,../image/flower.png,flipflops,rshift,1,flipflops,flower,flipflops,flower,None,,,,,,,,,,0,28,28,49,,,,,,,,,,,,,,,,,183.2668210000047,lshift,0,2.541163082998537,184.22950491666805,,,,,,,,,AJ,001,2023-04-05_13h35.33.691,exp_g1,2022.2.5,None,
76.0,l1,f,se,na,../audio/076.wav,,l1_f_se_na_076,,,,,,,../image/hotdog.png,../image/burger.png,hotdog,lshift,1,hotdog,burger,hotdog,burger,None,,,,,,,,,,0,29,29,15,,,,,,,,,,,,,,,,,185.8581522500026,lshift,1,2.3386795410042396,186.82282091666664,,,,,,,,,AJ,001,2023-04-05_13h35.33.691,exp_g1,2022.2.5,None,
82.0,l1,f,se,na,../audio/082.wav,,l1_f_se_na_082,,,,,,,../image/mickeymouse.png,../image/spongebob.png,mickeymouse,lshift,1,mickeymouse,spongebob,mickeymouse,spongebob,None,,,,,,,,,,0,30,30,21,,,,,,,,,,,,,,,,,188.2461247090032,lshift,1,2.277521833006176,189.21320333367137,,,,,,,,,AJ,001,2023-04-05_13h35.33.691,exp_g1,2022.2.5,None,
72.0,l1,f,en,na,../audio/072.wav,,l1_f_en_na_072,,,,,,,../image/dog.png,../image/fish.png,dog,lshift,1,dog,fish,dog,fish,None,,,,,,,,,,0,31,31,11,,,,,,,,,,,,,,,,,190.5719810840019,lshift,1,2.4541769579955144,191.5387800006686,,,,,,,,,AJ,001,2023-04-05_13h35.33.691,exp_g1,2022.2.5,None,
18.0,l1,t,es,na,../audio/018.wav,,l1_t_es_na_018,,,,,,,../image/cups.png,../image/napkins.png,napkins,lshift,1,napkins,cups,cups,napkins,None,,,,,,,,,,0,32,32,42,,,,,,,,,,,,,,,,,193.07454570900154,rshift,0,2.8903370820044074,194.03099916666932,,,,,,,,,AJ,001,2023-04-05_13h35.33.691,exp_g1,2022.2.5,None,
11.0,l1,t,es,na,../audio/011.wav,,l1_t_es_na_011,,,,,,,../image/armchair.png,../image/bed.png,armchair,rshift,1,armchair,bed,armchair,bed,None,,,,,,,,,,0,33,33,35,,,,,,,,,,,,,,,,,196.02244091700413,lshift,0,2.5004467489998206,196.97276316666492,,,,,,,,,AJ,001,2023-04-05_13h35.33.691,exp_g1,2022.2.5,None,
93.0,l1,f,sp,na,../audio/093.wav,,l1_f_sp_na_093,,,,,,,../image/boy.png,../image/book.png,book,lshift,1,book,boy,boy,book,None,,,,,,,,,,0,34,34,32,,,,,,,,,,,,,,,,,198.5693019590035,rshift,0,1.8706762489964603,199.52871241666824,,,,,,,,,AJ,001,2023-04-05_13h35.33.691,exp_g1,2022.2.5,None,
136.0,l1,t,es,f0u,../audio/136.wav,,l1_t_es_f0u_136,,,,,,,../image/city.png,../image/village.png,village,lshift,1,village,city,city,village,None,,,,,,,,,,0,35,35,50,,,,,,,,,,,,,,,,,200.4871902090017,rshift,0,3.2857798319964786,201.4558464586701,,,,,,,,,AJ,001,2023-04-05_13h35.33.691,exp_g1,2022.2.5,None,
66.0,l1,f,en,na,../audio/066.wav,,l1_f_en_na_066,,,,,,,../image/bag.png,../image/scarf.png,bag,lshift,1,bag,scarf,bag,scarf,None,,,,,,,,,,0,36,36,5,,,,,,,,,,,,,,,,,203.82607041700248,lshift,1,2.7042564989969833,204.7893588756672,,,,,,,,,AJ,001,2023-04-05_13h35.33.691,exp_g1,2022.2.5,None,
70.0,l1,f,en,na,../audio/070.wav,,l1_f_en_na_070,,,,,,,../image/computer.png,../image/bed.png,computer,lshift,1,computer,bed,computer,bed,None,,,,,,,,,,0,37,37,9,,,,,,,,,,,,,,,,,206.5833127090009,lshift,1,2.2830438739983947,207.54607737566792,,,,,,,,,AJ,001,2023-04-05_13h35.33.691,exp_g1,2022.2.5,None,
81.0,l1,f,se,na,../audio/081.wav,,l1_f_se_na_081,,,,,,,../image/boxers.png,../image/sweatpants.png,sweatpants,rshift,1,sweatpants,boxers,boxers,sweatpants,None,,,,,,,,,,0,38,38,20,,,,,,,,,,,,,,,,,208.91696808399865,rshift,1,3.3055687500018394,209.87286470866482,,,,,,,,,AJ,001,2023-04-05_13h35.33.691,exp_g1,2022.2.5,None,
65.0,l1,f,en,na,../audio/065.wav,,l1_f_en_na_065,,,,,,,../image/computer.png,../image/book.png,book,rshift,1,book,computer,computer,book,None,,,,,,,,,,0,39,39,4,,,,,,,,,,,,,,,,,212.27391162500135,rshift,1,2.0611221239960287,213.22942620866914,,,,,,,,,AJ,001,2023-04-05_13h35.33.691,exp_g1,2022.2.5,None,
133.0,l1,t,es,f0u,../audio/133.wav,,l1_t_es_f0u_133,,,,,,,../image/cellphone.png,../image/book.png,cellphone,rshift,1,cellphone,book,cellphone,book,None,,,,,,,,,,0,40,40,47,,,,,,,,,,,,,,,,,214.38217012500536,lshift,0,2.6338967500050785,215.34576287566986,,,,,,,,,AJ,001,2023-04-05_13h35.33.691,exp_g1,2022.2.5,None,
19.0,l1,t,es,na,../audio/019.wav,,l1_t_es_na_019,,,,,,,../image/boy.png,../image/dog.png,boy,rshift,1,boy,dog,boy,dog,None,,,,,,,,,,0,41,41,43,,,,,,,,,,,,,,,,,217.06639949999953,lshift,0,3.0848104579999927,218.0227346666691,,,,,,,,,AJ,001,2023-04-05_13h35.33.691,exp_g1,2022.2.5,None,
89.0,l1,f,sp,na,../audio/089.wav,,l1_f_sp_na_089,,,,,,,../image/bed.png,../image/wallet.png,wallet,lshift,1,wallet,bed,bed,wallet,None,,,,,,,,,,0,42,42,28,,,,,,,,,,,,,,,,,220.20127700000012,rshift,0,2.449132500005362,221.16245133366854,,,,,,,,,AJ,001,2023-04-05_13h35.33.691,exp_g1,2022.2.5,None,
64.0,l1,f,en,na,../audio/064.wav,,l1_f_en_na_064,,,,,,,../image/wallet.png,../image/key.png,wallet,lshift,1,wallet,key,wallet,key,None,,,,,,,,,,0,43,43,3,,,,,,,,,,,,,,,,,222.7046967089991,lshift,1,2.0223008330067387,223.6627753336691,,,,,,,,,AJ,001,2023-04-05_13h35.33.691,exp_g1,2022.2.5,None,
75.0,l1,f,en,na,../audio/075.wav,,l1_f_en_na_075,,,,,,,../image/dog.png,../image/fish.png,fish,rshift,1,fish,dog,dog,fish,None,,,,,,,,,,0,44,44,14,,,,,,,,,,,,,,,,,224.77463837499818,rshift,1,2.628235083000618,225.73937429166497,,,,,,,,,AJ,001,2023-04-05_13h35.33.691,exp_g1,2022.2.5,None,
91.0,l1,f,sp,na,../audio/091.wav,,l1_f_sp_na_091,,,,,,,../image/backpack.png,../image/bracelet.png,bracelet,lshift,1,bracelet,backpack,backpack,bracelet,None,,,,,,,,,,0,45,45,30,,,,,,,,,,,,,,,,,227.44947995900293,rshift,0,2.278567415996804,228.41248983367066,,,,,,,,,AJ,001,2023-04-05_13h35.33.691,exp_g1,2022.2.5,None,
137.0,l1,t,es,f0u,../audio/137.wav,,l1_t_es_f0u_137,,,,,,,../image/jacket.png,../image/shirt.png,jacket,rshift,1,jacket,shirt,jacket,shirt,None,,,,,,,,,,0,46,46,51,,,,,,,,,,,,,,,,,229.78051000000414,lshift,0,2.7891955000013695,230.73928187566733,,,,,,,,,AJ,001,2023-04-05_13h35.33.691,exp_g1,2022.2.5,None,
73.0,l1,f,en,na,../audio/073.wav,,l1_f_en_na_073,,,,,,,../image/socks.png,../image/tshirt.png,tshirt,rshift,1,tshirt,socks,socks,tshirt,None,,,,,,,,,,0,47,47,12,,,,,,,,,,,,,,,,,232.61401199999818,rshift,1,2.628897208000126,233.57682300066907,,,,,,,,,AJ,001,2023-04-05_13h35.33.691,exp_g1,2022.2.5,None,
69.0,l1,f,en,na,../audio/069.wav,,l1_f_en_na_069,,,,,,,../image/bag.png,../image/shirt.png,shirt,rshift,1,shirt,bag,bag,shirt,None,,,,,,,,,,0,48,48,8,,,,,,,,,,,,,,,,,235.2858630000046,rshift,1,2.6972492070053704,236.25585583367163,,,,,,,,,AJ,001,2023-04-05_13h35.33.691,exp_g1,2022.2.5,None,
12.0,l1,t,es,na,../audio/012.wav,,l1_t_es_na_012,,,,,,,../image/newspaper.png,../image/book.png,book,lshift,1,book,newspaper,newspaper,book,None,,,,,,,,,,0,49,49,36,,,,,,,,,,,,,,,,,238.03694054199877,rshift,0,3.3573515829993994,238.9958792506698,,,,,,,,,AJ,001,2023-04-05_13h35.33.691,exp_g1,2022.2.5,None,
138.0,l1,t,es,f0u,../audio/138.wav,,l1_t_es_f0u_138,,,,,,,../image/pants.png,../image/shirt.png,shirt,lshift,1,shirt,pants,pants,shirt,None,,,,,,,,,,0,50,50,52,,,,,,,,,,,,,,,,,241.43451112500043,rshift,0,2.7079209160074242,242.4057714586709,,,,,,,,,AJ,001,2023-04-05_13h35.33.691,exp_g1,2022.2.5,None,
87.0,l1,f,sp,na,../audio/087.wav,,l1_f_sp_na_087,,,,,,,../image/desk.png,../image/bed.png,bed,rshift,1,bed,desk,desk,bed,None,,,,,,,,,,0,51,51,26,,,,,,,,,,,,,,,,,244.19517170900508,rshift,1,2.8976935829996364,245.15585658367152,,,,,,,,,AJ,001,2023-04-05_13h35.33.691,exp_g1,2022.2.5,None,
84.0,l1,f,se,na,../audio/084.wav,,l1_f_se_na_084,,,,,,,../image/penthouse.png,../image/rocket.png,penthouse,lshift,1,penthouse,rocket,penthouse,rocket,None,,,,,,,,,,0,52,52,23,,,,,,,,,,,,,,,,,247.14348570899892,lshift,1,2.848309082000924,248.10530550066713,,,,,,,,,AJ,001,2023-04-05_13h35.33.691,exp_g1,2022.2.5,None,
132.0,l1,t,es,f0u,../audio/132.wav,,l1_t_es_f0u_132,,,,,,,../image/car.png,../image/grandma.png,grandma,lshift,1,grandma,car,car,grandma,None,,,,,,,,,,0,53,53,46,,,,,,,,,,,,,,,,,250.03829316700285,rshift,0,2.6062645409983816,251.00579641666653,,,,,,,,,AJ,001,2023-04-05_13h35.33.691,exp_g1,2022.2.5,None,
62.0,l1,f,en,na,../audio/062.wav,,l1_f_en_na_062,,,,,,,../image/shoe.png,../image/ring.png,shoe,lshift,1,shoe,ring,shoe,ring,None,,,,,,,,,,0,54,54,1,,,,,,,,,,,,,,,,,252.69048650000332,lshift,1,2.501260374003323,253.6557393756705,,,,,,,,,AJ,001,2023-04-05_13h35.33.691,exp_g1,2022.2.5,None,
tr1,lt,tr,en,na,../practice_trial/audio/tr1.wav,Where are your kids?,lt_tr_en_na_tr1,-,-,-,-,-,-,../image/america.png,../image/spain.png,,,,,,,,,,,,,,,,,,,,,,0,0,0,0,0,0,0,0,,,,,,,,,,,,,,287.194228417,288.1387927506696,['lshift'],[2.356342125000083],,,,,AJ,001,2023-04-05_13h35.33.691,exp_g1,2022.2.5,None,
tr2,lt,tr,en,na,../practice_trial/audio/tr2.wav,Who is buying my car?,lt_tr_en_na_tr2,-,-,-,-,-,-,../image/america.png,../image/spain.png,,,,,,,,,,,,,,,,,,,,,,0,0,0,0,0,1,1,1,,,,,,,,,,,,,,292.1715355839988,293.1388217916649,['lshift'],[2.6134448739976506],,,,,AJ,001,2023-04-05_13h35.33.691,exp_g1,2022.2.5,None,
tr3,lt,tr,sp,na,../practice_trial/audio/tr3.wav,¿Dónde está mi perro?,lt_tr_sp_na_tr3,-,-,-,-,-,-,../image/america.png,../image/spain.png,,,,,,,,,,,,,,,,,,,,,,0,0,0,0,0,2,2,2,,,,,,,,,,,,,,297.1757077500006,298.1386566666663,['rshift'],[2.623750081998878],,,,,AJ,001,2023-04-05_13h35.33.691,exp_g1,2022.2.5,None,
tr4,lt,tr,sp,na,../practice_trial/audio/tr4.wav,¿De quién es la bolsa?,lt_tr_sp_na_tr4,-,-,-,-,-,-,../image/america.png,../image/spain.png,,,,,,,,,,,,,,,,,,,,,,0,0,0,0,0,3,3,3,,,,,,,,,,,,,,302.1764970840013,303.13872325067155,['rshift'],[2.869853916003194],,,,,AJ,001,2023-04-05_13h35.33.691,exp_g1,2022.2.5,None,
tr5,lt,tr,se,na,../practice_trial/audio/tr5.wav,¿Dónde encontraste sus donuts?,lt_tr_se_na_tr5,-,-,-,-,-,-,../image/america.png,../image/spain.png,,,,,,,,,,,,,,,,,,,,,,0,0,0,0,0,4,4,4,,,,,,,,,,,,,,307.1795113340049,308.14485870866724,['rshift'],[4.843197333000717],,,,,AJ,001,2023-04-05_13h35.33.691,exp_g1,2022.2.5,None,
tr6,lt,tr,se,na,../practice_trial/audio/tr6.wav,¿Cuándo compraste tu sweater?,lt_tr_se_na_tr6,-,-,-,-,-,-,../image/america.png,../image/spain.png,,,,,,,,,,,,,,,,,,,,,,0,0,0,0,0,5,5,5,,,,,,,,,,,,,,312.17704233399854,313.14542258366805,['lshift'],[3.8184151660025236],,,,,AJ,001,2023-04-05_13h35.33.691,exp_g1,2022.2.5,None,
tr7,lt,tr,es,na,../practice_trial/audio/tr7.wav,Why do you have my camisa?,lt_tr_es_na_tr7,-,-,-,-,-,-,../image/america.png,../image/spain.png,,,,,,,,,,,,,,,,,,,,,,0,0,0,0,0,6,6,6,,,,,,,,,,,,,,317.1783130840049,318.138749083668,"['lshift', 'rshift']","[2.3246749989993987, 2.712288457005343]",,,,,AJ,001,2023-04-05_13h35.33.691,exp_g1,2022.2.5,None,
tr8,lt,tr,es,na,../practice_trial/audio/tr8.wav,Where did you find his chanclas?,lt_tr_es_na_tr8,-,-,-,-,-,-,../image/america.png,../image/spain.png,,,,,,,,,,,,,,,,,,,,,,0,0,0,0,0,7,7,7,,,,,,,,,,,,,,322.1701750420034,323.1446941256693,"['lshift', 'rshift']","[3.218474540997704, 3.411872623997624]",,,,,AJ,001,2023-04-05_13h35.33.691,exp_g1,2022.2.5,None,
,,,,,,,,,,,,,,,,,,,,,,,,,,,,,,,,,,,,,0,0,0,0,,,,,,,,,,,,,,,,,,,,,,,,,,AJ,001,2023-04-05_13h35.33.691,exp_g1,2022.2.5,None,
tr1,lt,tr,en,na,../practice_trial/audio/tr1.wav,Where are your kids?,lt_tr_en_na_tr1,-,-,-,-,-,-,../image/america.png,../image/spain.png,,,,,,,,,,,,,,,,,,,,,,1,0,1,0,0,0,0,0,,,,,,,,,,,,,,364.2481653750001,365.2048257506651,['lshift'],[1.4320705409991206],,,,,AJ,001,2023-04-05_13h35.33.691,exp_g1,2022.2.5,None,
tr2,lt,tr,en,na,../practice_trial/audio/tr2.wav,Who is buying my car?,lt_tr_en_na_tr2,-,-,-,-,-,-,../image/america.png,../image/spain.png,,,,,,,,,,,,,,,,,,,,,,1,0,1,0,0,1,1,1,,,,,,,,,,,,,,369.2388175840024,370.2050261666702,['lshift'],[1.6498721660027513],,,,,AJ,001,2023-04-05_13h35.33.691,exp_g1,2022.2.5,None,
tr3,lt,tr,sp,na,../practice_trial/audio/tr3.wav,¿Dónde está mi perro?,lt_tr_sp_na_tr3,-,-,-,-,-,-,../image/america.png,../image/spain.png,,,,,,,,,,,,,,,,,,,,,,1,0,1,0,0,2,2,2,,,,,,,,,,,,,,374.24162924999837,375.2048846666696,['rshift'],[2.0048715000011725],,,,,AJ,001,2023-04-05_13h35.33.691,exp_g1,2022.2.5,None,
tr4,lt,tr,sp,na,../practice_trial/audio/tr4.wav,¿De quién es la bolsa?,lt_tr_sp_na_tr4,-,-,-,-,-,-,../image/america.png,../image/spain.png,,,,,,,,,,,,,,,,,,,,,,1,0,1,0,0,3,3,3,,,,,,,,,,,,,,379.2376695839994,380.2047643756707,['rshift'],[1.4756895000027725],,,,,AJ,001,2023-04-05_13h35.33.691,exp_g1,2022.2.5,None,
tr5,lt,tr,se,na,../practice_trial/audio/tr5.wav,¿Dónde encontraste sus donuts?,lt_tr_se_na_tr5,-,-,-,-,-,-,../image/america.png,../image/spain.png,,,,,,,,,,,,,,,,,,,,,,1,0,1,0,0,4,4,4,,,,,,,,,,,,,,384.24297483400005,385.2048247506648,"['rshift', 'lshift']","[1.8808853320006165, 2.795669373997953]",,,,,AJ,001,2023-04-05_13h35.33.691,exp_g1,2022.2.5,None,
tr6,lt,tr,se,na,../practice_trial/audio/tr6.wav,¿Cuándo compraste tu sweater?,lt_tr_se_na_tr6,-,-,-,-,-,-,../image/america.png,../image/spain.png,,,,,,,,,,,,,,,,,,,,,,1,0,1,0,0,5,5,5,,,,,,,,,,,,,,389.24152550000144,390.20467641667005,"['rshift', 'lshift']","[1.7900814580061706, 2.863497416001337]",,,,,AJ,001,2023-04-05_13h35.33.691,exp_g1,2022.2.5,None,
tr7,lt,tr,es,na,../practice_trial/audio/tr7.wav,Why do you have my camisa?,lt_tr_es_na_tr7,-,-,-,-,-,-,../image/america.png,../image/spain.png,,,,,,,,,,,,,,,,,,,,,,1,0,1,0,0,6,6,6,,,,,,,,,,,,,,394.2365962920012,395.20327754167033,"['lshift', 'rshift']","[1.919223499004147, 2.379050832001667]",,,,,AJ,001,2023-04-05_13h35.33.691,exp_g1,2022.2.5,None,
tr8,lt,tr,es,na,../practice_trial/audio/tr8.wav,Where did you find his chanclas?,lt_tr_es_na_tr8,-,-,-,-,-,-,../image/america.png,../image/spain.png,,,,,,,,,,,,,,,,,,,,,,1,0,1,0,0,7,7,7,,,,,,,,,,,,,,399.23830637500214,400.20484745866656,"['lshift', 'rshift']","[1.7737517499990645, 2.2396149999985937]",,,,,AJ,001,2023-04-05_13h35.33.691,exp_g1,2022.2.5,None,
,,,,,,,,,,,,,,,,,,,,,,,,,,,,,,,,,,,,,1,0,1,0,,,,,,,,,,,,,,,,,,,,,,,,,,AJ,001,2023-04-05_13h35.33.691,exp_g1,2022.2.5,None,
123.0,l2,f,sp,na,../audio/123.wav,,l2_f_sp_na_123,,,,,,,../image/america.png,../image/spain.png,,,2,america,spain,,,,None,,,,,,,,,,,,,,,,,,,,,0,0,0,27,,,,,,,,,,,,,,411.5897077920017,412.5374650006672,"['lshift', 'rshift', 'lshift']","[-0.39186845899530454, 1.7259942080054316, 2.2421369580042665]",AJ,001,2023-04-05_13h35.33.691,exp_g1,2022.2.5,None,
119.0,l2,f,se,na,../audio/119.wav,,l2_f_se_na_119,,,,,,,../image/america.png,../image/spain.png,,,2,america,spain,,,,1,,,,,,,,,,,,,,,,,,,,,0,1,1,23,,,,,,,,,,,,,,416.5728883750053,417.52791166666816,"['rshift', 'lshift']","[1.5704620410033385, 2.8087293330027023]",AJ,001,2023-04-05_13h35.33.691,exp_g1,2022.2.5,None,
122.0,l2,f,sp,na,../audio/122.wav,,l2_f_sp_na_122,,,,,,,../image/america.png,../image/spain.png,,,2,america,spain,,,,None,,,,,,,,,,,,,,,,,,,,,0,2,2,26,,,,,,,,,,,,,,421.57067454200296,422.5275552916685,"['rshift', 'rshift']","[1.6763531240067095, 2.585943958001735]",AJ,001,2023-04-05_13h35.33.691,exp_g1,2022.2.5,None,
105.0,l2,f,en,na,../audio/105.wav,,l2_f_en_na_105,,,,,,,../image/america.png,../image/spain.png,,,2,america,spain,,,,None,,,,,,,,,,,,,,,,,,,,,0,3,3,9,,,,,,,,,,,,,,426.56653675000416,427.52880695867157,"['rshift', 'lshift']","[1.5178169990031165, 1.9954532910051057]",AJ,001,2023-04-05_13h35.33.691,exp_g1,2022.2.5,None,
167.0,l2,t,es,f0c,../audio/167.wav,,l2_t_es_f0c_167,,,,,,,../image/america.png,../image/spain.png,,,2,america,spain,,,,1,,,,,,,,,,,,,,,,,,,,,0,4,4,51,,,,,,,,,,,,,,431.5735939170045,432.52792737567165,"['lshift', 'rshift']","[1.8567867079982534, 2.732424458001333]",AJ,001,2023-04-05_13h35.33.691,exp_g1,2022.2.5,None,
113.0,l2,f,se,na,../audio/113.wav,,l2_f_se_na_113,,,,,,,../image/america.png,../image/spain.png,,,2,america,spain,,,,1,,,,,,,,,,,,,,,,,,,,,0,5,5,17,,,,,,,,,,,,,,436.5751024170022,437.52762166667185,"['rshift', 'lshift']","[1.5919504159974167, 2.3437814579956466]",AJ,001,2023-04-05_13h35.33.691,exp_g1,2022.2.5,None,
128.0,l2,f,sp,na,../audio/128.wav,,l2_f_sp_na_128,,,,,,,../image/america.png,../image/spain.png,,,2,america,spain,,,,None,,,,,,,,,,,,,,,,,,,,,0,6,6,32,,,,,,,,,,,,,,441.5712849170013,442.5365655836688,['rshift'],[1.6957123750034953],AJ,001,2023-04-05_13h35.33.691,exp_g1,2022.2.5,None,
98.0,l2,f,en,na,../audio/098.wav,,l2_f_en_na_098,,,,,,,../image/america.png,../image/spain.png,,,2,america,spain,,,,None,,,,,,,,,,,,,,,,,,,,,0,7,7,2,,,,,,,,,,,,,,446.5699547090044,447.52809500066746,['lshift'],[1.7114663320026011],AJ,001,2023-04-05_13h35.33.691,exp_g1,2022.2.5,None,
29.0,l2,t,es,na,../audio/029.wav,,l2_t_es_na_029,,,,,,,../image/america.png,../image/spain.png,,,2,america,spain,,,,1,,,,,,,,,,,,,,,,,,,,,0,8,8,43,,,,,,,,,,,,,,451.57056504199863,452.5285326666674,"['lshift', 'rshift']","[1.8643806660038535, 2.970209082006477]",AJ,001,2023-04-05_13h35.33.691,exp_g1,2022.2.5,None,
25.0,l2,t,es,na,../audio/025.wav,,l2_t_es_na_025,,,,,,,../image/america.png,../image/spain.png,,,2,america,spain,,,,1,,,,,,,,,,,,,,,,,,,,,0,9,9,39,,,,,,,,,,,,,,456.5722437500008,457.52781183366847,"['lshift', 'rshift']","[1.9027152069975273, 2.7191040409961715]",AJ,001,2023-04-05_13h35.33.691,exp_g1,2022.2.5,None,
21.0,l2,t,es,na,../audio/021.wav,,l2_t_es_na_021,,,,,,,../image/america.png,../image/spain.png,,,2,america,spain,,,,1,,,,,,,,,,,,,,,,,,,,,0,10,10,35,,,,,,,,,,,,,,461.572550375,462.5273960836678,"['lshift', 'rshift']","[1.6394114159993478, 2.3180713320034556]",AJ,001,2023-04-05_13h35.33.691,exp_g1,2022.2.5,None,
112.0,l2,f,se,na,../audio/112.wav,,l2_f_se_na_112,,,,,,,../image/america.png,../image/spain.png,,,2,america,spain,,,,1,,,,,,,,,,,,,,,,,,,,,0,11,11,16,,,,,,,,,,,,,,466.57328183400386,467.52753679166585,"['rshift', 'lshift']","[1.6588491250004154, 2.341594999998051]",AJ,001,2023-04-05_13h35.33.691,exp_g1,2022.2.5,None,
100.0,l2,f,en,na,../audio/100.wav,,l2_f_en_na_100,,,,,,,../image/america.png,../image/spain.png,,,2,america,spain,,,,None,,,,,,,,,,,,,,,,,,,,,0,12,12,4,,,,,,,,,,,,,,471.5724207919993,472.5371272506711,['lshift'],[1.5662342910000007],AJ,001,2023-04-05_13h35.33.691,exp_g1,2022.2.5,None,
162.0,l2,t,es,f0c,../audio/162.wav,,l2_t_es_f0c_162,,,,,,,../image/america.png,../image/spain.png,,,2,america,spain,,,,1,,,,,,,,,,,,,,,,,,,,,0,13,13,46,,,,,,,,,,,,,,476.56969420899986,477.5278456256676,"['lshift', 'rshift']","[1.6725158750050468, 2.343021041000611]",AJ,001,2023-04-05_13h35.33.691,exp_g1,2022.2.5,None,
26.0,l2,t,es,na,../audio/026.wav,,l2_t_es_na_026,,,,,,,../image/america.png,../image/spain.png,,,2,america,spain,,,,1,,,,,,,,,,,,,,,,,,,,,0,14,14,40,,,,,,,,,,,,,,481.57030350000423,482.5374012916693,"['lshift', 'rshift']","[1.662920998998743, 2.4313865410003928]",AJ,001,2023-04-05_13h35.33.691,exp_g1,2022.2.5,None,
117.0,l2,f,se,na,../audio/117.wav,,l2_f_se_na_117,,,,,,,../image/america.png,../image/spain.png,,,2,america,spain,,,,1,,,,,,,,,,,,,,,,,,,,,0,15,15,21,,,,,,,,,,,,,,486.5705105419984,487.5374615836665,"['rshift', 'lshift']","[1.621636458003195, 2.5563088330018218]",AJ,001,2023-04-05_13h35.33.691,exp_g1,2022.2.5,None,
165.0,l2,t,es,f0c,../audio/165.wav,,l2_t_es_f0c_165,,,,,,,../image/america.png,../image/spain.png,,,2,america,spain,,,,1,,,,,,,,,,,,,,,,,,,,,0,16,16,49,,,,,,,,,,,,,,491.57180125000014,492.5276438756666,"['lshift', 'rshift']","[1.7769492070074193, 2.6659063320039422]",AJ,001,2023-04-05_13h35.33.691,exp_g1,2022.2.5,None,
28.0,l2,t,es,na,../audio/028.wav,,l2_t_es_na_028,,,,,,,../image/america.png,../image/spain.png,,,2,america,spain,,,,1,,,,,,,,,,,,,,,,,,,,,0,17,17,42,,,,,,,,,,,,,,496.5737284170027,497.53742045866625,"['lshift', 'rshift']","[1.614294166000036, 2.4058938740054145]",AJ,001,2023-04-05_13h35.33.691,exp_g1,2022.2.5,None,
130.0,l2,f,sp,na,../audio/130.wav,,l2_f_sp_na_130,,,,,,,../image/america.png,../image/spain.png,,,2,america,spain,,,,None,,,,,,,,,,,,,,,,,,,,,0,18,18,34,,,,,,,,,,,,,,501.5700066249992,502.536326333666,['lshift'],[1.681154999001592],AJ,001,2023-04-05_13h35.33.691,exp_g1,2022.2.5,None,
170.0,l2,t,es,f0c,../audio/170.wav,,l2_t_es_f0c_170,,,,,,,../image/america.png,../image/spain.png,,,2,america,spain,,,,1,,,,,,,,,,,,,,,,,,,,,0,19,19,54,,,,,,,,,,,,,,506.57231287500326,507.5276958756697,"['lshift', 'rshift']","[1.5362524990050588, 2.4278730820005876]",AJ,001,2023-04-05_13h35.33.691,exp_g1,2022.2.5,None,
24.0,l2,t,es,na,../audio/024.wav,,l2_t_es_na_024,,,,,,,../image/america.png,../image/spain.png,,,2,america,spain,,,,1,,,,,,,,,,,,,,,,,,,,,0,20,20,38,,,,,,,,,,,,,,511.5717575840026,512.5372035416697,"['lshift', 'rshift']","[1.9921565409968025, 2.5662092080019647]",AJ,001,2023-04-05_13h35.33.691,exp_g1,2022.2.5,None,
27.0,l2,t,es,na,../audio/027.wav,,l2_t_es_na_027,,,,,,,../image/america.png,../image/spain.png,,,2,america,spain,,,,1,,,,,,,,,,,,,,,,,,,,,0,21,21,41,,,,,,,,,,,,,,516.572092209004,517.5375210836685,"['lshift', 'rshift']","[1.9218712490037433, 2.3397950819999096]",AJ,001,2023-04-05_13h35.33.691,exp_g1,2022.2.5,None,
23.0,l2,t,es,na,../audio/023.wav,,l2_t_es_na_023,,,,,,,../image/america.png,../image/spain.png,,,2,america,spain,,,,1,,,,,,,,,,,,,,,,,,,,,0,22,22,37,,,,,,,,,,,,,,521.5706300840029,522.537152375666,"['lshift', 'rshift']","[1.6512465409978176, 2.462451332001365]",AJ,001,2023-04-05_13h35.33.691,exp_g1,2022.2.5,None,
115.0,l2,f,se,na,../audio/115.wav,,l2_f_se_na_115,,,,,,,../image/america.png,../image/spain.png,,,2,america,spain,,,,1,,,,,,,,,,,,,,,,,,,,,0,23,23,19,,,,,,,,,,,,,,526.570397209005,527.52779629167,"['rshift', 'lshift']","[1.712692874003551, 2.45608383200306]",AJ,001,2023-04-05_13h35.33.691,exp_g1,2022.2.5,None,
124.0,l2,f,sp,na,../audio/124.wav,,l2_f_sp_na_124,,,,,,,../image/america.png,../image/spain.png,,,2,america,spain,,,,None,,,,,,,,,,,,,,,,,,,,,0,24,24,28,,,,,,,,,,,,,,531.5699737920004,532.5368045006655,['rshift'],[1.734177375001309],AJ,001,2023-04-05_13h35.33.691,exp_g1,2022.2.5,None,
168.0,l2,t,es,f0c,../audio/168.wav,,l2_t_es_f0c_168,,,,,,,../image/america.png,../image/spain.png,,,2,america,spain,,,,1,,,,,,,,,,,,,,,,,,,,,0,25,25,52,,,,,,,,,,,,,,536.5716509589984,537.5369757506671,"['lshift', 'rshift']","[2.122324207004567, 3.0676266240043333]",AJ,001,2023-04-05_13h35.33.691,exp_g1,2022.2.5,None,
169.0,l2,t,es,f0c,../audio/169.wav,,l2_t_es_f0c_169,,,,,,,../image/america.png,../image/spain.png,,,2,america,spain,,,,1,,,,,,,,,,,,,,,,,,,,,0,26,26,53,,,,,,,,,,,,,,541.5727783750044,542.5372539586717,"['lshift', 'rshift']","[1.8086435410004924, 2.8086385409987997]",AJ,001,2023-04-05_13h35.33.691,exp_g1,2022.2.5,None,
110.0,l2,f,en,na,../audio/110.wav,,l2_f_en_na_110,,,,,,,../image/america.png,../image/spain.png,,,2,america,spain,,,,None,,,,,,,,,,,,,,,,,,,,,0,27,27,14,,,,,,,,,,,,,,546.5747962090027,547.537050041665,['lshift'],[1.807328791001055],AJ,001,2023-04-05_13h35.33.691,exp_g1,2022.2.5,None,
102.0,l2,f,en,na,../audio/102.wav,,l2_f_en_na_102,,,,,,,../image/america.png,../image/spain.png,,,2,america,spain,,,,None,,,,,,,,,,,,,,,,,,,,,0,28,28,6,,,,,,,,,,,,,,551.5746110840046,552.5368899586649,['lshift'],[1.729651958004979],AJ,001,2023-04-05_13h35.33.691,exp_g1,2022.2.5,None,
161.0,l2,t,es,f0c,../audio/161.wav,,l2_t_es_f0c_161,,,,,,,../image/america.png,../image/spain.png,,,2,america,spain,,,,1,,,,,,,,,,,,,,,,,,,,,0,29,29,45,,,,,,,,,,,,,,556.5728349170022,557.5367472916662,"['lshift', 'rshift']","[1.9707014990053722, 2.414019666000968]",AJ,001,2023-04-05_13h35.33.691,exp_g1,2022.2.5,None,
114.0,l2,f,se,na,../audio/114.wav,,l2_f_se_na_114,,,,,,,../image/america.png,../image/spain.png,,,2,america,spain,,,,1,,,,,,,,,,,,,,,,,,,,,0,30,30,18,,,,,,,,,,,,,,561.5702151250007,562.5357072916706,['rshift'],[1.872146416004398],AJ,001,2023-04-05_13h35.33.691,exp_g1,2022.2.5,None,
30.0,l2,t,es,na,../audio/030.wav,,l2_t_es_na_030,,,,,,,../image/america.png,../image/spain.png,,,2,america,spain,,,,1,,,,,,,,,,,,,,,,,,,,,0,31,31,44,,,,,,,,,,,,,,566.5727974590045,567.5355714166692,"['lshift', 'rshift']","[2.0016035829976317, 2.7031004579985165]",AJ,001,2023-04-05_13h35.33.691,exp_g1,2022.2.5,None,
22.0,l2,t,es,na,../audio/022.wav,,l2_t_es_na_022,,,,,,,../image/america.png,../image/spain.png,,,2,america,spain,,,,1,,,,,,,,,,,,,,,,,,,,,0,32,32,36,,,,,,,,,,,,,,571.5703494590052,572.5367854166655,"['lshift', 'rshift']","[1.7169727079963195, 2.4833855830001994]",AJ,001,2023-04-05_13h35.33.691,exp_g1,2022.2.5,None,
164.0,l2,t,es,f0c,../audio/164.wav,,l2_t_es_f0c_164,,,,,,,../image/america.png,../image/spain.png,,,2,america,spain,,,,1,,,,,,,,,,,,,,,,,,,,,0,33,33,48,,,,,,,,,,,,,,576.5727367090003,577.5368413756698,"['lshift', 'rshift']","[3.166634998997324, 3.3316680830030236]",AJ,001,2023-04-05_13h35.33.691,exp_g1,2022.2.5,None,
116.0,l2,f,se,na,../audio/116.wav,,l2_f_se_na_116,,,,,,,../image/america.png,../image/spain.png,,,2,america,spain,,,,1,,,,,,,,,,,,,,,,,,,,,0,34,34,20,,,,,,,,,,,,,,581.5700077090005,582.5369882506677,['rshift'],[2.4218124160033767],AJ,001,2023-04-05_13h35.33.691,exp_g1,2022.2.5,None,
129.0,l2,f,sp,na,../audio/129.wav,,l2_f_sp_na_129,,,,,,,../image/america.png,../image/spain.png,,,2,america,spain,,,,None,,,,,,,,,,,,,,,,,,,,,0,35,35,33,,,,,,,,,,,,,,586.5719551670045,587.53677595867,['rshift'],[2.4509128749996307],AJ,001,2023-04-05_13h35.33.691,exp_g1,2022.2.5,None,
166.0,l2,t,es,f0c,../audio/166.wav,,l2_t_es_f0c_166,,,,,,,../image/america.png,../image/spain.png,,,2,america,spain,,,,1,,,,,,,,,,,,,,,,,,,,,0,36,36,50,,,,,,,,,,,,,,591.5715502500025,592.5364462086693,"['lshift', 'rshift']","[2.098806499001512, 3.073883206998289]",AJ,001,2023-04-05_13h35.33.691,exp_g1,2022.2.5,None,
106.0,l2,f,en,na,../audio/106.wav,,l2_f_en_na_106,,,,,,,../image/america.png,../image/spain.png,,,2,america,spain,,,,None,,,,,,,,,,,,,,,,,,,,,0,37,37,10,,,,,,,,,,,,,,596.5699139999997,597.5367163336671,['lshift'],[2.611583707999671],AJ,001,2023-04-05_13h35.33.691,exp_g1,2022.2.5,None,
127.0,l2,f,sp,na,../audio/127.wav,,l2_f_sp_na_127,,,,,,,../image/america.png,../image/spain.png,,,2,america,spain,,,,None,,,,,,,,,,,,,,,,,,,,,0,38,38,31,,,,,,,,,,,,,,601.5733552500024,602.5351271666698,['rshift'],[1.8172042070073076],AJ,001,2023-04-05_13h35.33.691,exp_g1,2022.2.5,None,
109.0,l2,f,en,na,../audio/109.wav,,l2_f_en_na_109,,,,,,,../image/america.png,../image/spain.png,,,2,america,spain,,,,None,,,,,,,,,,,,,,,,,,,,,0,39,39,13,,,,,,,,,,,,,,606.5723291670001,607.5366489166665,['lshift'],[2.0150414160016226],AJ,001,2023-04-05_13h35.33.691,exp_g1,2022.2.5,None,
120.0,l2,f,se,na,../audio/120.wav,,l2_f_se_na_120,,,,,,,../image/america.png,../image/spain.png,,,2,america,spain,,,,1,,,,,,,,,,,,,,,,,,,,,0,40,40,24,,,,,,,,,,,,,,611.5713122090019,612.5367080416656,['rshift'],[2.616246040997794],AJ,001,2023-04-05_13h35.33.691,exp_g1,2022.2.5,None,
99.0,l2,f,en,na,../audio/099.wav,,l2_f_en_na_099,,,,,,,../image/america.png,../image/spain.png,,,2,america,spain,,,,None,,,,,,,,,,,,,,,,,,,,,0,41,41,3,,,,,,,,,,,,,,616.5692782090046,617.5365332506665,['lshift'],[1.8063295829997514],AJ,001,2023-04-05_13h35.33.691,exp_g1,2022.2.5,None,
97.0,l2,f,en,na,../audio/097.wav,,l2_f_en_na_097,,,,,,,../image/america.png,../image/spain.png,,,2,america,spain,,,,None,,,,,,,,,,,,,,,,,,,,,0,42,42,1,,,,,,,,,,,,,,621.5691249590018,622.5359936256684,['lshift'],[1.7717482909938553],AJ,001,2023-04-05_13h35.33.691,exp_g1,2022.2.5,None,
126.0,l2,f,sp,na,../audio/126.wav,,l2_f_sp_na_126,,,,,,,../image/america.png,../image/spain.png,,,2,america,spain,,,,None,,,,,,,,,,,,,,,,,,,,,0,43,43,30,,,,,,,,,,,,,,626.5710541670051,627.5362662916707,['rshift'],[1.8759135830041487],AJ,001,2023-04-05_13h35.33.691,exp_g1,2022.2.5,None,
103.0,l2,f,en,na,../audio/103.wav,,l2_f_en_na_103,,,,,,,../image/america.png,../image/spain.png,,,2,america,spain,,,,None,,,,,,,,,,,,,,,,,,,,,0,44,44,7,,,,,,,,,,,,,,631.5691300420003,632.5348883336667,['lshift'],[1.4190300000045681],AJ,001,2023-04-05_13h35.33.691,exp_g1,2022.2.5,None,
111.0,l2,f,se,na,../audio/111.wav,,l2_f_se_na_111,,,,,,,../image/america.png,../image/spain.png,,,2,america,spain,,,,1,,,,,,,,,,,,,,,,,,,,,0,45,45,15,,,,,,,,,,,,,,636.5699837920038,637.5365022506705,"['rshift', 'lshift']","[1.7434918319995631, 2.7444752489973325]",AJ,001,2023-04-05_13h35.33.691,exp_g1,2022.2.5,None,
163.0,l2,t,es,f0c,../audio/163.wav,,l2_t_es_f0c_163,,,,,,,../image/america.png,../image/spain.png,,,2,america,spain,,,,1,,,,,,,,,,,,,,,,,,,,,0,46,46,47,,,,,,,,,,,,,,641.5714244170013,642.5363756666668,"['lshift', 'rshift']","[2.754862874004175, 3.4149294160015415]",AJ,001,2023-04-05_13h35.33.691,exp_g1,2022.2.5,None,
107.0,l2,f,en,na,../audio/107.wav,,l2_f_en_na_107,,,,,,,../image/america.png,../image/spain.png,,,2,america,spain,,,,None,,,,,,,,,,,,,,,,,,,,,0,47,47,11,,,,,,,,,,,,,,646.5701853339997,647.5364217506688,['lshift'],[1.6220254580039182],AJ,001,2023-04-05_13h35.33.691,exp_g1,2022.2.5,None,
104.0,l2,f,en,na,../audio/104.wav,,l2_f_en_na_104,,,,,,,../image/america.png,../image/spain.png,,,2,america,spain,,,,None,,,,,,,,,,,,,,,,,,,,,0,48,48,8,,,,,,,,,,,,,,651.5721042500008,652.5360376256688,['lshift'],[1.8313167489977786],AJ,001,2023-04-05_13h35.33.691,exp_g1,2022.2.5,None,
96.0,l2,f,en,na,../audio/096.wav,,l2_f_en_na_096,,,,,,,../image/america.png,../image/spain.png,,,2,america,spain,,,,None,,,,,,,,,,,,,,,,,,,,,0,49,49,0,,,,,,,,,,,,,,656.5683297920041,657.5360807086656,['lshift'],[1.834829166000418],AJ,001,2023-04-05_13h35.33.691,exp_g1,2022.2.5,None,
118.0,l2,f,se,na,../audio/118.wav,,l2_f_se_na_118,,,,,,,../image/america.png,../image/spain.png,,,2,america,spain,,,,1,,,,,,,,,,,,,,,,,,,,,0,50,50,22,,,,,,,,,,,,,,661.5697782089992,662.5360870006664,['rshift'],[1.7232119990076171],AJ,001,2023-04-05_13h35.33.691,exp_g1,2022.2.5,None,
108.0,l2,f,en,na,../audio/108.wav,,l2_f_en_na_108,,,,,,,../image/america.png,../image/spain.png,,,2,america,spain,,,,None,,,,,,,,,,,,,,,,,,,,,0,51,51,12,,,,,,,,,,,,,,666.569109875003,667.5360427916714,['lshift'],[1.6938865830015857],AJ,001,2023-04-05_13h35.33.691,exp_g1,2022.2.5,None,
101.0,l2,f,en,na,../audio/101.wav,,l2_f_en_na_101,,,,,,,../image/america.png,../image/spain.png,,,2,america,spain,,,,None,,,,,,,,,,,,,,,,,,,,,0,52,52,5,,,,,,,,,,,,,,671.5702345000027,672.5364861256714,['lshift'],[1.8464628319998155],AJ,001,2023-04-05_13h35.33.691,exp_g1,2022.2.5,None,
125,l2,f,sp,na,../audio/125.wav,,l2_f_sp_na_125,,,,,,,../image/america.png,../image/spain.png,,,2,america,spain,,,,None,,,,,,,,,,,,,,,,,,,,,0,53,53,29,,,,,,,,,,,,,,676.5705036670042,677.5361438756702,['rshift'],[2.1351534579953295],AJ,001,2023-04-05_13h35.33.691,exp_g1,2022.2.5,None,
121.0,l2,f,sp,na,../audio/121.wav,,l2_f_sp_na_121,,,,,,,../image/america.png,../image/spain.png,,,2,america,spain,,,,None,,,,,,,,,,,,,,,,,,,,,0,54,54,25,,,,,,,,,,,,,,681.5685326669991,682.5350119166653,"['lshift', 'rshift']","[1.5369987080048304, 1.9272209990012925]",AJ,001,2023-04-05_13h35.33.691,exp_g1,2022.2.5,None,
