num,list,cond,lang,type,sound_dir,phr,sent_code,mat,mat_num,emb_num,emb,cut,mat_f0_c,left,right,correct_img,correct_key,exp_num,image,image_alt,left_img,right_img,image_dir,cs,exp1_retrial.thisRepN,exp1_retrial.thisTrialN,exp1_retrial.thisN,exp1_retrial.thisIndex,exp1_trial_loop.thisRepN,exp1_trial_loop.thisTrialN,exp1_trial_loop.thisN,exp1_trial_loop.thisIndex,exp1_loop.thisRepN,exp1_loop.thisTrialN,exp1_loop.thisN,exp1_loop.thisIndex,exp2_retrial.thisRepN,exp2_retrial.thisTrialN,exp2_retrial.thisN,exp2_retrial.thisIndex,exp2_trial_loop.thisRepN,exp2_trial_loop.thisTrialN,exp2_trial_loop.thisN,exp2_trial_loop.thisIndex,exp2_loop.thisRepN,exp2_loop.thisTrialN,exp2_loop.thisN,exp2_loop.thisIndex,exp1_trial_cross.started,exp1_trial_key.started,exp1_trial_cross.stopped,exp1_trial_sound.started,exp1_trial_key.stopped,exp1_trial_key.keys,exp1_cross.started,exp1_key.started,exp1_key.keys,exp1_key.rt,exp1_cross.stopped,exp1_sound.started,exp1_key.stopped,exp2_trial_cross.started,exp2_trial_key.started,exp2_trial_cross.stopped,exp2_trial_sound.started,exp2_trial_key.stopped,exp2_trial_key.keys,exp2_trial_key.rt,exp2_cross.started,exp2_key.started,exp2_cross.stopped,exp2_sound.started,exp2_key.stopped,exp2_key.keys,exp2_key.rt,participant,session,date,expName,psychopyVersion,frameRate,
tr1,lt,tr,en,na,../practice_trial/audio/tr1.wav,Where are your kids?,lt_tr_en_na_tr1,-,-,-,-,-,-,../image/kids.png,../image/plates.png,kids,lshift,,,,,,,,0,0,0,0,0,0,0,0,,,,,,,,,,,,,,,,,75.49786283401772,75.65457245905418,75.73517779202666,76.4135716256608,80.68238066707272,None,,,,,,,,,,,,,,,,,,,,,,028,001,2023-05-05_15h19.23.523,exp_g2,2022.2.5,None,
tr2,lt,tr,en,na,../practice_trial/audio/tr2.wav,Who is buying my car?,lt_tr_en_na_tr2,-,-,-,-,-,-,../image/bag.png,../image/car.png,car,rshift,,,,,,,,0,0,0,0,0,1,1,1,,,,,,,,,,,,,,,,,80.68238066707272,80.90248712501489,80.9231980839977,81.66342541674773,85.93103616707958,None,,,,,,,,,,,,,,,,,,,,,,028,001,2023-05-05_15h19.23.523,exp_g2,2022.2.5,None,
tr3,lt,tr,sp,na,../practice_trial/audio/tr3.wav,¿Dónde está mi perro?,lt_tr_sp_na_tr3,-,-,-,-,-,-,../image/dog.png,../image/grandma.png,dog,lshift,,,,,,,,0,0,0,0,0,2,2,2,,,,,,,,,,,,,,,,,85.93103616707958,86.14696458401158,86.17016908398364,86.91483341675873,91.16960654209834,None,,,,,,,,,,,,,,,,,,,,,,028,001,2023-05-05_15h19.23.523,exp_g2,2022.2.5,None,
tr4,lt,tr,sp,na,../practice_trial/audio/tr4.wav,¿De quién es la bolsa?,lt_tr_sp_na_tr4,-,-,-,-,-,-,../image/shirt.png,../image/bag.png,bag,rshift,,,,,,,,0,0,0,0,0,3,3,3,,,,,,,,,,,,,,,,,91.16960654209834,91.40459045907483,91.41447558405343,92.16449725075314,96.43191637506243,None,,,,,,,,,,,,,,,,,,,,,,028,001,2023-05-05_15h19.23.523,exp_g2,2022.2.5,None,
tr5,lt,tr,se,na,../practice_trial/audio/tr5.wav,¿Dónde encontraste sus donuts?,lt_tr_se_na_tr5,-,-,-,-,-,-,../image/donut.png,../image/cups.png,donut,lshift,,,,,,,,0,0,0,0,0,4,4,4,,,,,,,,,,,,,,,,,96.43191637506243,96.6542944170069,96.67088554205839,97.40485008369821,101.68073750007898,None,,,,,,,,,,,,,,,,,,,,,,028,001,2023-05-05_15h19.23.523,exp_g2,2022.2.5,None,
tr6,lt,tr,se,na,../practice_trial/audio/tr6.wav,¿Cuándo compraste tu sweater?,lt_tr_se_na_tr6,-,-,-,-,-,-,../image/chair.png,../image/sweater.png,sweater,rshift,,,,,,,,0,0,0,0,0,5,5,5,,,,,,,,,,,,,,,,,101.68073750007898,101.90193733398337,101.92962120904122,102.66403100075355,106.93096762499772,None,,,,,,,,,,,,,,,,,,,,,,028,001,2023-05-05_15h19.23.523,exp_g2,2022.2.5,None,
tr7,lt,tr,es,na,../practice_trial/audio/tr7.wav,Why do you have my camisa?,lt_tr_es_na_tr7,-,-,-,-,-,-,../image/shirt.png,../image/wallet.png,shirt,lshift,,,,,,,,0,0,0,0,0,6,6,6,,,,,,,,,,,,,,,,,106.93096762499772,107.1536460419884,107.17116662499029,107.91394929174955,112.18064720905386,None,,,,,,,,,,,,,,,,,,,,,,028,001,2023-05-05_15h19.23.523,exp_g2,2022.2.5,None,
tr8,lt,tr,es,na,../practice_trial/audio/tr8.wav,Where did you find his chanclas?,lt_tr_es_na_tr8,-,-,-,-,-,-,../image/key.png,../image/flipflops.png,flipflops,rshift,,,,,,,,0,0,0,0,0,7,7,7,,,,,,,,,,,,,,,,,112.18064720905386,112.40404283406679,112.43096812500153,113.16302358365307,117.39796025003307,None,,,,,,,,,,,,,,,,,,,,,,028,001,2023-05-05_15h19.23.523,exp_g2,2022.2.5,None,
,,,,,,,,,,,,,,,,,,,,,,,,,0,0,0,0,,,,,,,,,,,,,,,,,,,,,,,,,,,,,,,,,,,,,,,,,,,,,,,,028,001,2023-05-05_15h19.23.523,exp_g2,2022.2.5,None,
126.0,l2,f,sp,na,../audio/126.wav,,l2_f_sp_na_126,,,,,,,../image/backpack.png,../image/key.png,key,rshift,1,key,backpack,backpack,key,None,,,,,,,,,,0,0,0,30,,,,,,,,,,,,,,,,,,,160.00835875002667,160.04654958401807,['lshift'],[-2.931696917046793],,,,,,,,,,,,,,,,,,028,001,2023-05-05_15h19.23.523,exp_g2,2022.2.5,None,
125,l2,f,sp,na,../audio/125.wav,,l2_f_sp_na_125,,,,,,,../image/desk.png,../image/bottle.png,desk,lshift,1,desk,bottle,desk,bottle,None,,,,,,,,,,0,1,1,29,,,,,,,,,,,,,,,,,,,160.07027324999217,160.28581850009505,['lshift'],[2.5094355000182986],160.31799620902166,161.04749745870166,,,,,,,,,,,,,,,,028,001,2023-05-05_15h19.23.523,exp_g2,2022.2.5,None,
127.0,l2,f,sp,na,../audio/127.wav,,l2_f_sp_na_127,,,,,,,../image/cat.png,../image/dog.png,cat,lshift,1,cat,dog,cat,dog,None,,,,,,,,,,0,2,2,31,,,,,,,,,,,,,,,,,,,162.84024341707118,163.04727816709783,None,,163.0880315840477,163.80347079172887,168.07883279200178,,,,,,,,,,,,,,,028,001,2023-05-05_15h19.23.523,exp_g2,2022.2.5,None,
102.0,l2,f,en,na,../audio/102.wav,,l2_f_en_na_102,,,,,,,../image/socks.png,../image/book.png,books,rshift,1,books,socks,socks,book,None,,,,,,,,,,0,3,3,6,,,,,,,,,,,,,,,,,,,168.07883279200178,168.2960028339876,['rshift'],[2.0354931249748915],168.31947358406615,169.05240637570776,,,,,,,,,,,,,,,,028,001,2023-05-05_15h19.23.523,exp_g2,2022.2.5,None,
112.0,l2,f,se,na,../audio/112.wav,,l2_f_se_na_112,,,,,,,../image/burger.png,../image/hotdog.png,hotdog,rshift,1,hotdog,burger,burger,hotdog,None,,,,,,,,,,0,4,4,16,,,,,,,,,,,,,,,,,,,170.38730649999343,170.58740845904686,['rshift'],[2.1795047080377117],170.6302206669934,171.3473457917028,,,,,,,,,,,,,,,,028,001,2023-05-05_15h19.23.523,exp_g2,2022.2.5,None,
27.0,l2,t,es,na,../audio/027.wav,,l2_t_es_na_027,,,,,,,../image/shirt.png,../image/book.png,shirt,lshift,1,shirt,book,shirt,book,None,,,,,,,,,,0,5,5,41,,,,,,,,,,,,,,,,,,,172.81198445905466,173.02077854203526,['lshift'],[1.9469360000221059],173.0537967090495,173.7710292917366,,,,,,,,,,,,,,,,028,001,2023-05-05_15h19.23.523,exp_g2,2022.2.5,None,
147.0,l2,t,es,f0u,../audio/147.wav,,l2_t_es_f0u_147,,,,,,,../image/truck.png,../image/book.png,truck,lshift,1,truck,book,truck,book,None,,,,,,,,,,0,6,6,51,,,,,,,,,,,,,,,,,,,175.01641137502156,175.22077070898376,None,,175.26386262499727,175.98017308366641,180.25018679199275,,,,,,,,,,,,,,,028,001,2023-05-05_15h19.23.523,exp_g2,2022.2.5,None,
106.0,l2,f,en,na,../audio/106.wav,,l2_f_en_na_106,,,,,,,../image/wallet.png,../image/computer.png,computer,rshift,1,computer,wallet,wallet,computer,None,,,,,,,,,,0,7,7,10,,,,,,,,,,,,,,,,,,,180.25018679199275,180.47043883404694,['rshift'],[2.5948536249343306],180.49721987498924,181.23014900071237,,,,,,,,,,,,,,,,028,001,2023-05-05_15h19.23.523,exp_g2,2022.2.5,None,
149.0,l2,t,es,f0u,../audio/149.wav,,l2_t_es_f0u_149,,,,,,,../image/boy.png,../image/dog.png,boy,lshift,1,boy,dog,boy,dog,None,,,,,,,,,,0,8,8,53,,,,,,,,,,,,,,,,,,,183.11615879205056,183.32131141703576,['lshift'],[2.717288749990985],183.36409704200923,184.0795169167143,,,,,,,,,,,,,,,,028,001,2023-05-05_15h19.23.523,exp_g2,2022.2.5,None,
29.0,l2,t,es,na,../audio/029.wav,,l2_t_es_na_029,,,,,,,../image/armchair.png,../image/ring.png,armchair,lshift,1,armchair,ring,armchair,ring,None,,,,,,,,,,0,9,9,43,,,,,,,,,,,,,,,,,,,186.0940972090466,186.29692612506915,None,,186.33685929200146,187.05272600072593,191.32521108409856,,,,,,,,,,,,,,,028,001,2023-05-05_15h19.23.523,exp_g2,2022.2.5,None,
145.0,l2,t,es,f0u,../audio/145.wav,,l2_t_es_f0u_145,,,,,,,../image/bag.png,../image/flower.png,bag,lshift,1,bag,flower,bag,flower,None,,,,,,,,,,0,10,10,49,,,,,,,,,,,,,,,,,,,191.32521108409856,191.54736075003166,['lshift'],[2.04098366596736],191.5681699999841,192.30334550067008,,,,,,,,,,,,,,,,028,001,2023-05-05_15h19.23.523,exp_g2,2022.2.5,None,
97.0,l2,f,en,na,../audio/097.wav,,l2_f_en_na_097,,,,,,,../image/ring.png,../image/belt.png,ring,lshift,1,ring,belt,ring,belt,None,,,,,,,,,,0,11,11,1,,,,,,,,,,,,,,,,,,,193.6380972500192,193.8471601670608,['lshift'],[2.078482708078809],193.88486145902425,194.60391754174296,,,,,,,,,,,,,,,,028,001,2023-05-05_15h19.23.523,exp_g2,2022.2.5,None,
23.0,l2,t,es,na,../audio/023.wav,,l2_t_es_na_023,,,,,,,../image/wine.png,../image/cellphone.png,wine,lshift,1,wine,cellphone,wine,cellphone,None,,,,,,,,,,0,12,12,37,,,,,,,,,,,,,,,,,,,195.97164420899935,196.17025595903397,['lshift'],[2.211712332908064],196.2184408340836,196.93008525070425,,,,,,,,,,,,,,,,028,001,2023-05-05_15h19.23.523,exp_g2,2022.2.5,None,
98.0,l2,f,en,na,../audio/098.wav,,l2_f_en_na_098,,,,,,,../image/man.png,../image/woman.png,woman,rshift,1,woman,man,man,woman,None,,,,,,,,,,0,13,13,2,,,,,,,,,,,,,,,,,,,198.43034304201137,198.6371274170233,['rshift'],[2.034419334027916],198.66781591705512,199.39708916674525,,,,,,,,,,,,,,,,028,001,2023-05-05_15h19.23.523,exp_g2,2022.2.5,None,
108.0,l2,f,en,na,../audio/108.wav,,l2_f_en_na_108,,,,,,,../image/scarf.png,../image/socks.png,socks,rshift,1,socks,scarf,scarf,socks,None,,,,,,,,,,0,14,14,12,,,,,,,,,,,,,,,,,,,200.72365558403544,200.92025954206474,['rshift'],[3.883776000002399],200.97006012499332,201.6804639166842,,,,,,,,,,,,,,,,028,001,2023-05-05_15h19.23.523,exp_g2,2022.2.5,None,
148.0,l2,t,es,f0u,../audio/148.wav,,l2_t_es_f0u_148,,,,,,,../image/newspaper.png,../image/cups.png,cups,rshift,1,cups,newspaper,newspaper,cups,None,,,,,,,,,,0,15,15,52,,,,,,,,,,,,,,,,,,,204.84942791704088,205.05357633403037,['rshift'],[2.9776805829023942],205.09707162505947,205.81367812568013,,,,,,,,,,,,,,,,028,001,2023-05-05_15h19.23.523,exp_g2,2022.2.5,None,
144.0,l2,t,es,f0u,../audio/144.wav,,l2_t_es_f0u_144,,,,,,,../image/bracelet.png,../image/backpack.png,backpack,rshift,1,backpack,bracelet,bracelet,backpack,None,,,,,,,,,,0,16,16,48,,,,,,,,,,,,,,,,,,,208.08479895908386,208.28735508408863,['rshift'],[2.6319341249763966],208.32983279204927,209.04714729165815,,,,,,,,,,,,,,,,028,001,2023-05-05_15h19.23.523,exp_g2,2022.2.5,None,
103.0,l2,f,en,na,../audio/103.wav,,l2_f_en_na_103,,,,,,,../image/toys.png,../image/sneakers.png,toys,lshift,1,toys,sneakers,toys,sneakers,None,,,,,,,,,,0,17,17,7,,,,,,,,,,,,,,,,,,,210.96639837499242,211.17040450009517,['lshift'],[2.0710739999776706],211.21358162502293,211.92982358375255,,,,,,,,,,,,,,,,028,001,2023-05-05_15h19.23.523,exp_g2,2022.2.5,None,
100.0,l2,f,en,na,../audio/100.wav,,l2_f_en_na_100,,,,,,,../image/wallet.png,../image/scarf.png,scarf,rshift,1,scarf,wallet,wallet,scarf,None,,,,,,,,,,0,18,18,4,,,,,,,,,,,,,,,,,,,213.29458550002892,213.4970978749916,['rshift'],[1.8134259580401704],213.53475708409678,214.2525556666699,,,,,,,,,,,,,,,,028,001,2023-05-05_15h19.23.523,exp_g2,2022.2.5,None,
123.0,l2,f,sp,na,../audio/123.wav,,l2_f_sp_na_123,,,,,,,../image/sweater.png,../image/cellphone.png,sweater,lshift,1,sweater,cellphone,sweater,cellphone,None,,,,,,,,,,0,19,19,27,,,,,,,,,,,,,,,,,,,215.3557238340145,215.55367320904043,['lshift'],[1.9817660830449313],215.6014187920373,216.3136031666693,,,,,,,,,,,,,,,,028,001,2023-05-05_15h19.23.523,exp_g2,2022.2.5,None,
143.0,l2,t,es,f0u,../audio/143.wav,,l2_t_es_f0u_143,,,,,,,../image/horchata.png,../image/beer.png,horchata,lshift,1,horchata,beer,horchata,beer,None,,,,,,,,,,0,20,20,47,,,,,,,,,,,,,,,,,,,217.57692670903634,217.787095042062,None,,217.8199071250856,218.5468445837653,222.80928233405575,,,,,,,,,,,,,,,028,001,2023-05-05_15h19.23.523,exp_g2,2022.2.5,None,
107.0,l2,f,en,na,../audio/107.wav,,l2_f_en_na_107,,,,,,,../image/man.png,../image/cat.png,man,lshift,1,man,cat,man,cat,None,,,,,,,,,,0,21,21,11,,,,,,,,,,,,,,,,,,,222.80928233405575,223.03718508407474,['lshift'],[2.1293587919790298],223.05300870898645,223.79660437564988,,,,,,,,,,,,,,,,028,001,2023-05-05_15h19.23.523,exp_g2,2022.2.5,None,
111.0,l2,f,se,na,../audio/111.wav,,l2_f_se_na_111,,,,,,,../image/mashedpotatoes.png,../image/donut.png,mashedpotatoes,lshift,1,mashedpotatoes,donut,mashedpotatoes,donut,None,,,,,,,,,,0,22,22,15,,,,,,,,,,,,,,,,,,,225.21496566699352,225.42042816709727,['lshift'],[2.147882374934852],225.46361487498507,226.170795000686,,,,,,,,,,,,,,,,028,001,2023-05-05_15h19.23.523,exp_g2,2022.2.5,None,
142.0,l2,t,es,f0u,../audio/142.wav,,l2_t_es_f0u_142,,,,,,,../image/car.png,../image/truck.png,truck,rshift,1,truck,car,car,truck,None,,,,,,,,,,0,23,23,46,,,,,,,,,,,,,,,,,,,227.61429870908614,227.82044312509242,None,,227.86353125004098,228.5799038337466,232.84259016707074,,,,,,,,,,,,,,,028,001,2023-05-05_15h19.23.523,exp_g2,2022.2.5,None,
110.0,l2,f,en,na,../audio/110.wav,,l2_f_en_na_110,,,,,,,../image/dog.png,../image/cat.png,cat,rshift,1,cat,dog,dog,cat,None,,,,,,,,,,0,24,24,14,,,,,,,,,,,,,,,,,,,232.84259016707074,233.07075150008313,['rshift'],[2.376817832933739],233.08675733406562,233.82003970869508,,,,,,,,,,,,,,,,028,001,2023-05-05_15h19.23.523,exp_g2,2022.2.5,None,
116.0,l2,f,se,na,../audio/116.wav,,l2_f_se_na_116,,,,,,,../image/sweatpants.png,../image/boxers.png,boxers,rshift,1,boxers,sweatpants,sweatpants,boxers,None,,,,,,,,,,0,25,25,20,,,,,,,,,,,,,,,,,,,235.49753500008956,235.70370579208247,['rshift'],[2.902964917011559],235.73652695899364,236.4637030417255,,,,,,,,,,,,,,,,028,001,2023-05-05_15h19.23.523,exp_g2,2022.2.5,None,
130.0,l2,f,sp,na,../audio/130.wav,,l2_f_sp_na_130,,,,,,,../image/socks.png,../image/glasses.png,glasses,rshift,1,glasses,socks,socks,glasses,None,,,,,,,,,,0,26,26,34,,,,,,,,,,,,,,,,,,,238.6512790840352,238.85369929205626,['rshift'],[2.2313035000115633],238.8967631669948,239.61822295870323,,,,,,,,,,,,,,,,028,001,2023-05-05_15h19.23.523,exp_g2,2022.2.5,None,
26.0,l2,t,es,na,../audio/026.wav,,l2_t_es_na_026,,,,,,,../image/village.png,../image/grandma.png,grandma,rshift,1,grandma,village,village,grandma,None,,,,,,,,,,0,27,27,40,,,,,,,,,,,,,,,,,,,241.1311722920509,241.33677116699982,['rshift'],[2.318483958952129],241.38006770901848,242.09684270871028,,,,,,,,,,,,,,,,028,001,2023-05-05_15h19.23.523,exp_g2,2022.2.5,None,
99.0,l2,f,en,na,../audio/099.wav,,l2_f_en_na_099,,,,,,,../image/dog.png,../image/cat.png,dog,lshift,1,dog,cat,dog,cat,None,,,,,,,,,,0,28,28,3,,,,,,,,,,,,,,,,,,,243.70420704199933,243.90343404200394,['lshift'],[1.4944668329553679],243.9467173750745,244.66345345875405,,,,,,,,,,,,,,,,028,001,2023-05-05_15h19.23.523,exp_g2,2022.2.5,None,
121.0,l2,f,sp,na,../audio/121.wav,,l2_f_sp_na_121,,,,,,,../image/shoe.png,../image/glasses.png,shoe,lshift,1,shoe,glasses,shoe,glasses,None,,,,,,,,,,0,29,29,25,,,,,,,,,,,,,,,,,,,245.4444887500722,245.6533488749992,['lshift'],[2.0436720410361886],245.68447566707619,246.41351516667444,,,,,,,,,,,,,,,,028,001,2023-05-05_15h19.23.523,exp_g2,2022.2.5,None,
25.0,l2,t,es,na,../audio/025.wav,,l2_t_es_na_025,,,,,,,../image/cellphone.png,../image/truck.png,cellphone,lshift,1,cellphone,truck,cellphone,truck,None,,,,,,,,,,0,30,30,39,,,,,,,,,,,,,,,,,,,247.74691500002518,247.94579945900477,None,,247.9968458750518,248.70271250076283,252.9709930419922,,,,,,,,,,,,,,,028,001,2023-05-05_15h19.23.523,exp_g2,2022.2.5,None,
146.0,l2,t,es,f0u,../audio/146.wav,,l2_t_es_f0u_146,,,,,,,../image/cellphone.png,../image/flipflops.png,flipflops,rshift,1,flipflops,cellphone,cellphone,flipflops,None,,,,,,,,,,0,31,31,50,,,,,,,,,,,,,,,,,,,252.9709930419922,253.20137374999467,['rshift'],[3.022894666995853],253.2184121250175,253.9530348337178,,,,,,,,,,,,,,,,028,001,2023-05-05_15h19.23.523,exp_g2,2022.2.5,None,
129.0,l2,f,sp,na,../audio/129.wav,,l2_f_sp_na_129,,,,,,,../image/bag.png,../image/chair.png,bag,lshift,1,bag,chair,bag,chair,None,,,,,,,,,,0,32,32,33,,,,,,,,,,,,,,,,,,,256.2707031670725,256.46928016701713,['lshift'],[2.9326957910088822],256.519849167089,257.2299333756712,,,,,,,,,,,,,,,,028,001,2023-05-05_15h19.23.523,exp_g2,2022.2.5,None,
120.0,l2,f,se,na,../audio/120.wav,,l2_f_se_na_120,,,,,,,../image/glasses.png,../image/joycons.png,joycons,rshift,1,joycons,glasses,glasses,joycons,None,,,,,,,,,,0,33,33,24,,,,,,,,,,,,,,,,,,,259.44183366699144,259.6536044169916,None,,259.6862365420675,260.403561083662,264.6917574170511,,,,,,,,,,,,,,,028,001,2023-05-05_15h19.23.523,exp_g2,2022.2.5,None,
113.0,l2,f,se,na,../audio/113.wav,,l2_f_se_na_113,,,,,,,../image/loafers.png,../image/sneakers.png,loafers,lshift,1,loafers,sneakers,loafers,sneakers,None,,,,,,,,,,0,34,34,17,,,,,,,,,,,,,,,,,,,264.6917574170511,264.90336787502747,['lshift'],[2.182897667051293],264.9364411670249,265.6532935007165,,,,,,,,,,,,,,,,028,001,2023-05-05_15h19.23.523,exp_g2,2022.2.5,None,
109.0,l2,f,en,na,../audio/109.wav,,l2_f_en_na_109,,,,,,,../image/fish.png,../image/woman.png,fish,lshift,1,fish,woman,fish,woman,None,,,,,,,,,,0,35,35,13,,,,,,,,,,,,,,,,,,,267.1395893750014,267.34661383403,['lshift'],[1.6614575830753893],267.3846189590404,268.1026666256987,,,,,,,,,,,,,,,,028,001,2023-05-05_15h19.23.523,exp_g2,2022.2.5,None,
124.0,l2,f,sp,na,../audio/124.wav,,l2_f_sp_na_124,,,,,,,../image/bag.png,../image/bed.png,bed,rshift,1,bed,bag,bag,bed,None,,,,,,,,,,0,36,36,28,,,,,,,,,,,,,,,,,,,269.05832895904314,269.26331862504594,['rshift'],[2.1602754169143736],269.30282562505454,270.0206849587305,,,,,,,,,,,,,,,,028,001,2023-05-05_15h19.23.523,exp_g2,2022.2.5,None,
115.0,l2,f,se,na,../audio/115.wav,,l2_f_se_na_115,,,,,,,../image/notebook.png,../image/cellphone.png,notebook,lshift,1,notebook,cellphone,notebook,cellphone,None,,,,,,,,,,0,37,37,19,,,,,,,,,,,,,,,,,,,271.47252358403057,271.67949825001415,['lshift'],[2.145945332944393],271.7202636250295,272.43647270865426,,,,,,,,,,,,,,,,028,001,2023-05-05_15h19.23.523,exp_g2,2022.2.5,None,
141.0,l2,t,es,f0u,../audio/141.wav,,l2_t_es_f0u_141,,,,,,,../image/dog.png,../image/backpack.png,dog,lshift,1,dog,backpack,dog,backpack,None,,,,,,,,,,0,38,38,45,,,,,,,,,,,,,,,,,,,273.87544720899314,274.0793873750372,['lshift'],[2.043692750041373],274.1196581670083,274.83641491673575,,,,,,,,,,,,,,,,028,001,2023-05-05_15h19.23.523,exp_g2,2022.2.5,None,
22.0,l2,t,es,na,../audio/022.wav,,l2_t_es_na_022,,,,,,,../image/dog.png,../image/cat.png,cat,rshift,1,cat,dog,dog,cat,None,,,,,,,,,,0,39,39,36,,,,,,,,,,,,,,,,,,,276.174055667012,276.3800503340317,['rshift'],[2.0187132919672877],276.4200889590429,277.1356661257489,,,,,,,,,,,,,,,,028,001,2023-05-05_15h19.23.523,exp_g2,2022.2.5,None,
24.0,l2,t,es,na,../audio/024.wav,,l2_t_es_na_024,,,,,,,../image/bed.png,../image/jug.png,jug,rshift,1,jug,bed,bed,jug,None,,,,,,,,,,0,40,40,38,,,,,,,,,,,,,,,,,,,278.44596875004936,278.6460267500952,None,,278.68639975006226,279.40248545870804,283.67558491707314,,,,,,,,,,,,,,,028,001,2023-05-05_15h19.23.523,exp_g2,2022.2.5,None,
118.0,l2,f,se,na,../audio/118.wav,,l2_f_se_na_118,,,,,,,../image/icecream.png,../image/donut.png,donut,rshift,1,donut,icecream,icecream,donut,None,,,,,,,,,,0,41,41,22,,,,,,,,,,,,,,,,,,,283.67558491707314,283.89598570903763,['rshift'],[1.6340555830392987],283.9199867499992,284.65297708375533,,,,,,,,,,,,,,,,028,001,2023-05-05_15h19.23.523,exp_g2,2022.2.5,None,
119.0,l2,f,se,na,../audio/119.wav,,l2_f_se_na_119,,,,,,,../image/penthouse.png,../image/rocket.png,penthouse,lshift,1,penthouse,rocket,penthouse,rocket,None,,,,,,,,,,0,42,42,23,,,,,,,,,,,,,,,,,,,285.5766955000581,285.77993641700596,['lshift'],[2.2171629169024527],285.81944433401804,286.53666875075237,,,,,,,,,,,,,,,,028,001,2023-05-05_15h19.23.523,exp_g2,2022.2.5,None,
28.0,l2,t,es,na,../audio/028.wav,,l2_t_es_na_028,,,,,,,../image/pants.png,../image/glasses.png,glasses,rshift,1,glasses,pants,pants,glasses,None,,,,,,,,,,0,43,43,42,,,,,,,,,,,,,,,,,,,288.0464802089846,288.2531219170196,['rshift'],[1.9528775829821825],288.2863275000127,289.01331616664925,,,,,,,,,,,,,,,,028,001,2023-05-05_15h19.23.523,exp_g2,2022.2.5,None,
30.0,l2,t,es,na,../audio/030.wav,,l2_t_es_na_030,,,,,,,../image/flipflops.png,../image/boy.png,boy,rshift,1,boy,flipflops,flipflops,boy,None,,,,,,,,,,0,44,44,44,,,,,,,,,,,,,,,,,,,290.2562278340338,290.4625727090752,['rshift'],[2.468942000064999],290.501513833995,291.21724745870256,,,,,,,,,,,,,,,,028,001,2023-05-05_15h19.23.523,exp_g2,2022.2.5,None,
104.0,l2,f,en,na,../audio/104.wav,,l2_f_en_na_104,,,,,,,../image/shirt.png,../image/bag.png,bag,rshift,1,bag,shirt,shirt,bag,None,,,,,,,,,,0,45,45,8,,,,,,,,,,,,,,,,,,,292.97639645903837,293.1864302920876,['rshift'],[1.9218527080956846],293.21601004200056,293.94657537568514,,,,,,,,,,,,,,,,028,001,2023-05-05_15h19.23.523,exp_g2,2022.2.5,None,
96.0,l2,f,en,na,../audio/096.wav,,l2_f_en_na_096,,,,,,,../image/woman.png,../image/cat.png,cat,rshift,1,cat,woman,woman,cat,../image/,,,,,,,,,,0,46,46,0,,,,,,,,,,,,,,,,,,,295.1554482920328,295.3627493750537,['rshift'],[1.6891012080013752],295.40310712507926,296.11997012567394,,,,,,,,,,,,,,,,028,001,2023-05-05_15h19.23.523,exp_g2,2022.2.5,None,
122.0,l2,f,sp,na,../audio/122.wav,,l2_f_sp_na_122,,,,,,,../image/desk.png,../image/chair.png,chair,rshift,1,chair,desk,desk,chair,None,,,,,,,,,,0,47,47,26,,,,,,,,,,,,,,,,,,,297.09719679201953,297.30298279202543,['rshift'],[2.804833583999425],297.34628725005314,298.06319475075384,,,,,,,,,,,,,,,,028,001,2023-05-05_15h19.23.523,exp_g2,2022.2.5,None,
21.0,l2,t,es,na,../audio/021.wav,,l2_t_es_na_021,,,,,,,../image/jacket.png,../image/flipflops.png,jacket,lshift,1,jacket,flipflops,jacket,flipflops,None,,,,,,,,,,0,48,48,35,,,,,,,,,,,,,,,,,,,300.1595027090516,300.363291167072,['lshift'],[2.186440792051144],300.4015131670749,301.1196108756742,,,,,,,,,,,,,,,,028,001,2023-05-05_15h19.23.523,exp_g2,2022.2.5,None,
114.0,l2,f,se,na,../audio/114.wav,,l2_f_se_na_114,,,,,,,../image/jeans.png,../image/sweatpants.png,sweatpants,rshift,1,sweatpants,jeans,jeans,sweatpants,None,,,,,,,,,,0,49,49,18,,,,,,,,,,,,,,,,,,,302.59316141705494,302.80347137502395,['lshift'],[2.023936292040162],302.8336180000333,303.5626024166743,,,,,,,,,,,,,,,,028,001,2023-05-05_15h19.23.523,exp_g2,2022.2.5,None,
101.0,l2,f,en,na,../audio/101.wav,,l2_f_en_na_101,,,,,,,../image/computer.png,../image/bag.png,computer,lshift,1,computer,bag,computer,bag,None,,,,,,,,,,0,50,50,5,,,,,,,,,,,,,,,,,,,304.87294129200745,305.07914883398917,['lshift'],[2.078134916955605],305.118019000045,305.8299266667493,,,,,,,,,,,,,,,,028,001,2023-05-05_15h19.23.523,exp_g2,2022.2.5,None,
128.0,l2,f,sp,na,../audio/128.wav,,l2_f_sp_na_128,,,,,,,../image/cups.png,../image/kids.png,kids,rshift,1,kids,cups,cups,kids,None,,,,,,,,,,0,51,51,32,,,,,,,,,,,,,,,,,,,307.20737666706555,307.41295441705734,['rshift'],[1.6109467080095783],307.4503081670264,308.16992141673495,,,,,,,,,,,,,,,,028,001,2023-05-05_15h19.23.523,exp_g2,2022.2.5,None,
105.0,l2,f,en,na,../audio/105.wav,,l2_f_en_na_105,,,,,,,../image/bed.png,../image/plane.png,bed,lshift,1,bed,plane,bed,plane,None,,,,,,,,,,0,52,52,9,,,,,,,,,,,,,,,,,,,309.0730941250222,309.27921016700566,['lshift'],[1.5791044579818845],309.3192471670918,310.0359002916996,,,,,,,,,,,,,,,,028,001,2023-05-05_15h19.23.523,exp_g2,2022.2.5,None,
150.0,l2,t,es,f0u,../audio/150.wav,,l2_t_es_f0u_150,,,,,,,../image/cat.png,../image/key.png,key,rshift,1,key,cat,cat,key,None,,,,,,,,,,0,53,53,54,,,,,,,,,,,,,,,,,,,310.9047901669983,311.11265300004743,['lshift'],[1.8040941670769826],311.1520340840798,311.8693645416681,,,,,,,,,,,,,,,,028,001,2023-05-05_15h19.23.523,exp_g2,2022.2.5,None,
117.0,l2,f,se,na,../audio/117.wav,,l2_f_se_na_117,,,,,,,../image/spongebob.png,../image/mickeymouse.png,spongebob,lshift,1,spongebob,mickeymouse,spongebob,mickeymouse,None,,,,,,,,,,0,54,54,21,,,,,,,,,,,,,,,,,,,312.95626754208934,313.16751533409115,['lshift'],[2.155613583046943],313.2006539590657,313.9202782506511,,,,,,,,,,,,,,,,028,001,2023-05-05_15h19.23.523,exp_g2,2022.2.5,None,
tr1,lt,tr,en,na,../practice_trial/audio/tr1.wav,Where are your kids?,lt_tr_en_na_tr1,-,-,-,-,-,-,../image/america.png,../image/spain.png,,,,,,,,,,,,,,,,,,,,,,0,0,0,0,0,0,0,0,,,,,,,,,,,,,,,,,,349.2589264170965,349.45369829202536,349.50215725007,350.2127016666966,354.4813473339891,"['lshift', 'lshift']","[1.8798805410042405, 4.57071487500798]",,,,,,,,028,001,2023-05-05_15h19.23.523,exp_g2,2022.2.5,None,
tr2,lt,tr,en,na,../practice_trial/audio/tr2.wav,Who is buying my car?,lt_tr_en_na_tr2,-,-,-,-,-,-,../image/america.png,../image/spain.png,,,,,,,,,,,,,,,,,,,,,,0,0,0,0,0,1,1,1,,,,,,,,,,,,,,,,,,354.4813473339891,354.7031776669901,354.72942525008693,355.4533415417575,359.73232204199303,['lshift'],[1.980182999977842],,,,,,,,028,001,2023-05-05_15h19.23.523,exp_g2,2022.2.5,None,
tr3,lt,tr,sp,na,../practice_trial/audio/tr3.wav,¿Dónde está mi perro?,lt_tr_sp_na_tr3,-,-,-,-,-,-,../image/america.png,../image/spain.png,,,,,,,,,,,,,,,,,,,,,,0,0,0,0,0,2,2,2,,,,,,,,,,,,,,,,,,359.73232204199303,359.95306508406065,359.979368334054,360.71263662568913,364.9741190840723,"['lshift', 'rshift']","[1.647331124986522, 2.1630083339987323]",,,,,,,,028,001,2023-05-05_15h19.23.523,exp_g2,2022.2.5,None,
tr4,lt,tr,sp,na,../practice_trial/audio/tr4.wav,¿De quién es la bolsa?,lt_tr_sp_na_tr4,-,-,-,-,-,-,../image/america.png,../image/spain.png,,,,,,,,,,,,,,,,,,,,,,0,0,0,0,0,3,3,3,,,,,,,,,,,,,,,,,,364.9741190840723,365.20263970899396,365.2181030000793,365.96277670871154,370.2330002920935,['rshift'],[1.5605478750076145],,,,,,,,028,001,2023-05-05_15h19.23.523,exp_g2,2022.2.5,None,
tr5,lt,tr,se,na,../practice_trial/audio/tr5.wav,¿Dónde encontraste sus donuts?,lt_tr_se_na_tr5,-,-,-,-,-,-,../image/america.png,../image/spain.png,,,,,,,,,,,,,,,,,,,,,,0,0,0,0,0,4,4,4,,,,,,,,,,,,,,,,,,370.2330002920935,370.4529076250037,370.4793896250194,371.2127149587652,375.47211950004566,['rshift'],[1.3188284169882536],,,,,,,,028,001,2023-05-05_15h19.23.523,exp_g2,2022.2.5,None,
tr6,lt,tr,se,na,../practice_trial/audio/tr6.wav,¿Cuándo compraste tu sweater?,lt_tr_se_na_tr6,-,-,-,-,-,-,../image/america.png,../image/spain.png,,,,,,,,,,,,,,,,,,,,,,0,0,0,0,0,5,5,5,,,,,,,,,,,,,,,,,,375.47211950004566,375.7027060420951,375.71670125005767,376.4626227917072,380.72125437506475,['rshift'],[2.950151457916945],,,,,,,,028,001,2023-05-05_15h19.23.523,exp_g2,2022.2.5,None,
tr7,lt,tr,es,na,../practice_trial/audio/tr7.wav,Why do you have my camisa?,lt_tr_es_na_tr7,-,-,-,-,-,-,../image/america.png,../image/spain.png,,,,,,,,,,,,,,,,,,,,,,0,0,0,0,0,6,6,6,,,,,,,,,,,,,,,,,,380.72125437506475,380.9528076250572,380.96716624998953,381.71113004169115,385.97139129205607,['lshift'],[1.3674896250013262],,,,,,,,028,001,2023-05-05_15h19.23.523,exp_g2,2022.2.5,None,
tr8,lt,tr,es,na,../practice_trial/audio/tr8.wav,Where did you find his chanclas?,lt_tr_es_na_tr8,-,-,-,-,-,-,../image/america.png,../image/spain.png,,,,,,,,,,,,,,,,,,,,,,0,0,0,0,0,7,7,7,,,,,,,,,,,,,,,,,,385.97139129205607,386.2027129170019,386.2177060840186,386.9621874587067,391.2045060840901,"['lshift', 'rshift']","[1.3273042080691084, 3.1804692080477253]",,,,,,,,028,001,2023-05-05_15h19.23.523,exp_g2,2022.2.5,None,
,,,,,,,,,,,,,,,,,,,,,,,,,,,,,,,,,,,,,0,0,0,0,,,,,,,,,,,,,,,,,,,,,,,,,,,,,,,,,,,,028,001,2023-05-05_15h19.23.523,exp_g2,2022.2.5,None,
tr1,lt,tr,en,na,../practice_trial/audio/tr1.wav,Where are your kids?,lt_tr_en_na_tr1,-,-,-,-,-,-,../image/america.png,../image/spain.png,,,,,,,,,,,,,,,,,,,,,,1,0,1,0,0,0,0,0,,,,,,,,,,,,,,,,,,395.8856765420642,396.08603091700934,396.1290250000311,396.84536425065403,401.1034403750673,['lshift'],[1.3898859169567004],,,,,,,,028,001,2023-05-05_15h19.23.523,exp_g2,2022.2.5,None,
tr2,lt,tr,en,na,../practice_trial/audio/tr2.wav,Who is buying my car?,lt_tr_en_na_tr2,-,-,-,-,-,-,../image/america.png,../image/spain.png,,,,,,,,,,,,,,,,,,,,,,1,0,1,0,0,1,1,1,,,,,,,,,,,,,,,,,,401.1034403750673,401.3358777090907,401.34471412503626,402.0944527086724,406.35382016701624,['lshift'],[1.1812091660685837],,,,,,,,028,001,2023-05-05_15h19.23.523,exp_g2,2022.2.5,None,
tr3,lt,tr,sp,na,../practice_trial/audio/tr3.wav,¿Dónde está mi perro?,lt_tr_sp_na_tr3,-,-,-,-,-,-,../image/america.png,../image/spain.png,,,,,,,,,,,,,,,,,,,,,,1,0,1,0,0,2,2,2,,,,,,,,,,,,,,,,,,406.35382016701624,406.58607445901725,406.60199887503404,407.3453235837553,411.6114349170821,['rshift'],[1.3777526250341907],,,,,,,,028,001,2023-05-05_15h19.23.523,exp_g2,2022.2.5,None,
tr4,lt,tr,sp,na,../practice_trial/audio/tr4.wav,¿De quién es la bolsa?,lt_tr_sp_na_tr4,-,-,-,-,-,-,../image/america.png,../image/spain.png,,,,,,,,,,,,,,,,,,,,,,1,0,1,0,0,3,3,3,,,,,,,,,,,,,,,,,,411.6114349170821,411.83547737507615,411.8504465840524,412.5957470837204,416.84605820907746,['rshift'],[1.5181565419770777],,,,,,,,028,001,2023-05-05_15h19.23.523,exp_g2,2022.2.5,None,
tr5,lt,tr,se,na,../practice_trial/audio/tr5.wav,¿Dónde encontraste sus donuts?,lt_tr_se_na_tr5,-,-,-,-,-,-,../image/america.png,../image/spain.png,,,,,,,,,,,,,,,,,,,,,,1,0,1,0,0,4,4,4,,,,,,,,,,,,,,,,,,416.84605820907746,417.0842754590558,417.0950409170473,417.844740666744,422.10260470898356,['rshift'],[1.4208923330297694],,,,,,,,028,001,2023-05-05_15h19.23.523,exp_g2,2022.2.5,None,
tr6,lt,tr,se,na,../practice_trial/audio/tr6.wav,¿Cuándo compraste tu sweater?,lt_tr_se_na_tr6,-,-,-,-,-,-,../image/america.png,../image/spain.png,,,,,,,,,,,,,,,,,,,,,,1,0,1,0,0,5,5,5,,,,,,,,,,,,,,,,,,422.10260470898356,422.3361632920569,422.3440558750881,423.09590462566507,427.35140245908406,"['lshift', 'rshift']","[1.1932624169858173, 1.3271712498972192]",,,,,,,,028,001,2023-05-05_15h19.23.523,exp_g2,2022.2.5,None,
tr7,lt,tr,es,na,../practice_trial/audio/tr7.wav,Why do you have my camisa?,lt_tr_es_na_tr7,-,-,-,-,-,-,../image/america.png,../image/spain.png,,,,,,,,,,,,,,,,,,,,,,1,0,1,0,0,6,6,6,,,,,,,,,,,,,,,,,,427.35140245908406,427.58517820900306,427.5951134170173,428.3365311256532,432.60462624998763,"['lshift', 'rshift']","[1.8104681249242276, 2.4815870409365743]",,,,,,,,028,001,2023-05-05_15h19.23.523,exp_g2,2022.2.5,None,
tr8,lt,tr,es,na,../practice_trial/audio/tr8.wav,Where did you find his chanclas?,lt_tr_es_na_tr8,-,-,-,-,-,-,../image/america.png,../image/spain.png,,,,,,,,,,,,,,,,,,,,,,1,0,1,0,0,7,7,7,,,,,,,,,,,,,,,,,,432.60462624998763,432.83572566707153,432.8495804590639,433.5954529167541,437.8272805000888,"['lshift', 'rshift']","[1.493535166955553, 2.3108237499836832]",,,,,,,,028,001,2023-05-05_15h19.23.523,exp_g2,2022.2.5,None,
,,,,,,,,,,,,,,,,,,,,,,,,,,,,,,,,,,,,,1,0,1,0,,,,,,,,,,,,,,,,,,,,,,,,,,,,,,,,,,,,028,001,2023-05-05_15h19.23.523,exp_g2,2022.2.5,None,
tr1,lt,tr,en,na,../practice_trial/audio/tr1.wav,Where are your kids?,lt_tr_en_na_tr1,-,-,-,-,-,-,../image/america.png,../image/spain.png,,,,,,,,,,,,,,,,,,,,,,2,0,2,0,0,0,0,0,,,,,,,,,,,,,,,,,,442.11280808399897,442.30074850004166,442.36198291706387,443.0675062917328,447.31945475004613,['lshift'],[1.1819692080607638],,,,,,,,028,001,2023-05-05_15h19.23.523,exp_g2,2022.2.5,None,
tr2,lt,tr,en,na,../practice_trial/audio/tr2.wav,Who is buying my car?,lt_tr_en_na_tr2,-,-,-,-,-,-,../image/america.png,../image/spain.png,,,,,,,,,,,,,,,,,,,,,,2,0,2,0,0,1,1,1,,,,,,,,,,,,,,,,,,447.31945475004613,447.55267545906827,447.56049204198644,448.31202208373384,452.5812860419974,"['lshift', 'rshift']","[1.595863249967806, 2.090586374979466]",,,,,,,,028,001,2023-05-05_15h19.23.523,exp_g2,2022.2.5,None,
tr3,lt,tr,sp,na,../practice_trial/audio/tr3.wav,¿Dónde está mi perro?,lt_tr_sp_na_tr3,-,-,-,-,-,-,../image/america.png,../image/spain.png,,,,,,,,,,,,,,,,,,,,,,2,0,2,0,0,2,2,2,,,,,,,,,,,,,,,,,,452.5812860419974,452.80170441698283,452.828688959009,453.56774245872316,457.8208251670003,['rshift'],[1.5715692089870572],,,,,,,,028,001,2023-05-05_15h19.23.523,exp_g2,2022.2.5,None,
tr4,lt,tr,sp,na,../practice_trial/audio/tr4.wav,¿De quién es la bolsa?,lt_tr_sp_na_tr4,-,-,-,-,-,-,../image/america.png,../image/spain.png,,,,,,,,,,,,,,,,,,,,,,2,0,2,0,0,3,3,3,,,,,,,,,,,,,,,,,,457.8208251670003,458.0524991250131,458.0654182500439,458.8120270836555,463.0638318749843,['rshift'],[1.499055749969557],,,,,,,,028,001,2023-05-05_15h19.23.523,exp_g2,2022.2.5,None,
tr5,lt,tr,se,na,../practice_trial/audio/tr5.wav,¿Dónde encontraste sus donuts?,lt_tr_se_na_tr5,-,-,-,-,-,-,../image/america.png,../image/spain.png,,,,,,,,,,,,,,,,,,,,,,2,0,2,0,0,4,4,4,,,,,,,,,,,,,,,,,,463.0638318749843,463.31059795909096,463.31059795909096,464.06198945868914,468.3290140000172,['rshift'],[1.5451181249227375],,,,,,,,028,001,2023-05-05_15h19.23.523,exp_g2,2022.2.5,None,
tr6,lt,tr,se,na,../practice_trial/audio/tr6.wav,¿Cuándo compraste tu sweater?,lt_tr_se_na_tr6,-,-,-,-,-,-,../image/america.png,../image/spain.png,,,,,,,,,,,,,,,,,,,,,,2,0,2,0,0,5,5,5,,,,,,,,,,,,,,,,,,468.3290140000172,468.55286075000186,468.578285500058,469.3186461666521,473.57760679209605,['rshift'],[2.0735431669745594],,,,,,,,028,001,2023-05-05_15h19.23.523,exp_g2,2022.2.5,None,
tr7,lt,tr,es,na,../practice_trial/audio/tr7.wav,Why do you have my camisa?,lt_tr_es_na_tr7,-,-,-,-,-,-,../image/america.png,../image/spain.png,,,,,,,,,,,,,,,,,,,,,,2,0,2,0,0,6,6,6,,,,,,,,,,,,,,,,,,473.57760679209605,473.812027667067,473.81876858405303,474.561990791761,478.82821675005835,"['lshift', 'rshift']","[1.589068791945465, 3.6674285419285297]",,,,,,,,028,001,2023-05-05_15h19.23.523,exp_g2,2022.2.5,None,
tr8,lt,tr,es,na,../practice_trial/audio/tr8.wav,Where did you find his chanclas?,lt_tr_es_na_tr8,-,-,-,-,-,-,../image/america.png,../image/spain.png,,,,,,,,,,,,,,,,,,,,,,2,0,2,0,0,7,7,7,,,,,,,,,,,,,,,,,,478.82821675005835,479.06193737499416,479.06965016701724,479.81201050075856,484.0521862920141,"['lshift', 'rshift']","[1.9021923750406131, 2.243530417094007]",,,,,,,,028,001,2023-05-05_15h19.23.523,exp_g2,2022.2.5,None,
,,,,,,,,,,,,,,,,,,,,,,,,,,,,,,,,,,,,,2,0,2,0,,,,,,,,,,,,,,,,,,,,,,,,,,,,,,,,,,,,028,001,2023-05-05_15h19.23.523,exp_g2,2022.2.5,None,
158.0,l1,t,es,f0c,../audio/158.wav,,l1_t_es_f0c_158,,,,,,,../image/america.png,../image/spain.png,,,2,america,spain,,,,1,,,,,,,,,,,,,,,,,,,,,0,0,0,52,,,,,,,,,,,,,,,,,,,,,489.59303945908323,489.77791041706223,489.83225091709755,490.53243062569913,494.7984981670743,"['lshift', 'rshift']","[1.2450895410729572, 2.2087631250033155]",028,001,2023-05-05_15h19.23.523,exp_g2,2022.2.5,None,
87.0,l1,f,sp,na,../audio/087.wav,,l1_f_sp_na_087,,,,,,,../image/america.png,../image/spain.png,,,2,america,spain,,,,None,,,,,,,,,,,,,,,,,,,,,0,1,1,26,,,,,,,,,,,,,,,,,,,,,494.7984981670743,495.02831729198806,495.04414466698654,495.78288316674684,500.0520273750881,['rshift'],[1.5000440839212388],028,001,2023-05-05_15h19.23.523,exp_g2,2022.2.5,None,
156.0,l1,t,es,f0c,../audio/156.wav,,l1_t_es_f0c_156,,,,,,,../image/america.png,../image/spain.png,,,2,america,spain,,,,1,,,,,,,,,,,,,,,,,,,,,0,2,2,50,,,,,,,,,,,,,,,,,,,,,500.0520273750881,500.27808720909525,500.2935007089982,501.0344359586636,505.2964993750211,"['lshift', 'rshift']","[1.4882315000286326, 2.2514472079928964]",028,001,2023-05-05_15h19.23.523,exp_g2,2022.2.5,None,
20.0,l1,t,es,na,../audio/020.wav,,l1_t_es_na_020,,,,,,,../image/america.png,../image/spain.png,,,2,america,spain,,,,1,,,,,,,,,,,,,,,,,,,,,0,3,3,44,,,,,,,,,,,,,,,,,,,,,505.2964993750211,505.5278673750581,505.5434321250068,506.2845800417165,510.5446352500003,"['lshift', 'rshift']","[1.30634854210075, 2.389096667058766]",028,001,2023-05-05_15h19.23.523,exp_g2,2022.2.5,None,
79.0,l1,f,se,na,../audio/079.wav,,l1_f_se_na_079,,,,,,,../image/america.png,../image/spain.png,,,2,america,spain,,,,1,,,,,,,,,,,,,,,,,,,,,0,4,4,18,,,,,,,,,,,,,,,,,,,,,510.5446352500003,510.77788950002287,510.7847058750922,511.5352503756915,515.7956463750452,"['rshift', 'lshift']","[1.3404555839952081, 2.0648329589748755]",028,001,2023-05-05_15h19.23.523,exp_g2,2022.2.5,None,
93.0,l1,f,sp,na,../audio/093.wav,,l1_f_sp_na_093,,,,,,,../image/america.png,../image/spain.png,,,2,america,spain,,,,None,,,,,,,,,,,,,,,,,,,,,0,5,5,32,,,,,,,,,,,,,,,,,,,,,515.7956463750452,516.0277759170858,516.0447052090894,516.7847029587176,521.0456850000191,['rshift'],[1.3273310830118135],028,001,2023-05-05_15h19.23.523,exp_g2,2022.2.5,None,
152.0,l1,t,es,f0c,../audio/152.wav,,l1_t_es_f0c_152,,,,,,,../image/america.png,../image/spain.png,,,2,america,spain,,,,1,,,,,,,,,,,,,,,,,,,,,0,6,6,46,,,,,,,,,,,,,,,,,,,,,521.0456850000191,521.2782474590931,521.2845418750076,522.0327104166538,526.2924356670119,"['lshift', 'rshift']","[1.4021387500688434, 2.3510908749885857]",028,001,2023-05-05_15h19.23.523,exp_g2,2022.2.5,None,
64.0,l1,f,en,na,../audio/064.wav,,l1_f_en_na_064,,,,,,,../image/america.png,../image/spain.png,,,2,america,spain,,,,None,,,,,,,,,,,,,,,,,,,,,0,7,7,3,,,,,,,,,,,,,,,,,,,,,526.2924356670119,526.5269155420829,526.5317844999954,527.2846651257171,531.5433770420495,['lshift'],[1.1515827080002055],028,001,2023-05-05_15h19.23.523,exp_g2,2022.2.5,None,
61.0,l1,f,en,na,../audio/061.wav,,l1_f_en_na_061,,,,,,,../image/america.png,../image/spain.png,,,2,america,spain,,,,None,,,,,,,,,,,,,,,,,,,,,0,8,8,0,,,,,,,,,,,,,,,,,,,,,531.5433770420495,531.7769502500305,531.7834637500346,532.5333665416731,536.7953110000817,['lshift'],[1.3128469999646768],028,001,2023-05-05_15h19.23.523,exp_g2,2022.2.5,None,
76.0,l1,f,se,na,../audio/076.wav,,l1_f_se_na_076,,,,,,,../image/america.png,../image/spain.png,,,2,america,spain,,,,1,,,,,,,,,,,,,,,,,,,,,0,9,9,15,,,,,,,,,,,,,,,,,,,,,536.7953110000817,537.02681566705,537.0448662090348,537.7835024167473,542.0457525840029,['rshift'],[1.207857207977213],028,001,2023-05-05_15h19.23.523,exp_g2,2022.2.5,None,
84.0,l1,f,se,na,../audio/084.wav,,l1_f_se_na_084,,,,,,,../image/america.png,../image/spain.png,,,2,america,spain,,,,1,,,,,,,,,,,,,,,,,,,,,0,10,10,23,,,,,,,,,,,,,,,,,,,,,542.0457525840029,542.2780610000482,542.2948045840021,543.0346497917237,547.2946243340848,"['rshift', 'lshift']","[1.450795124983415, 2.537261832971126]",028,001,2023-05-05_15h19.23.523,exp_g2,2022.2.5,None,
95.0,l1,f,sp,na,../audio/095.wav,,l1_f_sp_na_095,,,,,,,../image/america.png,../image/spain.png,,,2,america,spain,,,,None,,,,,,,,,,,,,,,,,,,,,0,11,11,34,,,,,,,,,,,,,,,,,,,,,547.2946243340848,547.5274379170733,547.5341809170786,548.2841280006726,552.5433644170407,['rshift'],[1.5968476659618318],028,001,2023-05-05_15h19.23.523,exp_g2,2022.2.5,None,
18.0,l1,t,es,na,../audio/018.wav,,l1_t_es_na_018,,,,,,,../image/america.png,../image/spain.png,,,2,america,spain,,,,1,,,,,,,,,,,,,,,,,,,,,0,12,12,42,,,,,,,,,,,,,,,,,,,,,552.5433644170407,552.7774591670604,552.7839217920555,553.5343917917382,557.7972463340266,"['rshift', 'lshift']","[1.2205119170248508, 2.7288761250674725]",028,001,2023-05-05_15h19.23.523,exp_g2,2022.2.5,None,
75.0,l1,f,en,na,../audio/075.wav,,l1_f_en_na_075,,,,,,,../image/america.png,../image/spain.png,,,2,america,spain,,,,None,,,,,,,,,,,,,,,,,,,,,0,13,13,14,,,,,,,,,,,,,,,,,,,,,557.7972463340266,558.0273425000487,558.043615667033,558.7828007507526,563.0444690840086,['lshift'],[2.7750441659009084],028,001,2023-05-05_15h19.23.523,exp_g2,2022.2.5,None,
71.0,l1,f,en,na,../audio/071.wav,,l1_f_en_na_071,,,,,,,../image/america.png,../image/spain.png,,,2,america,spain,,,,None,,,,,,,,,,,,,,,,,,,,,0,14,14,10,,,,,,,,,,,,,,,,,,,,,563.0444690840086,563.2782289170427,563.2847507920815,564.0339875006505,568.2959482499864,['lshift'],[1.8078138750279322],028,001,2023-05-05_15h19.23.523,exp_g2,2022.2.5,None,
157.0,l1,t,es,f0c,../audio/157.wav,,l1_t_es_f0c_157,,,,,,,../image/america.png,../image/spain.png,,,2,america,spain,,,,1,,,,,,,,,,,,,,,,,,,,,0,15,15,51,,,,,,,,,,,,,,,,,,,,,568.2959482499864,568.5275257920148,568.5443306250963,569.2846450417458,573.5451764999889,"['lshift', 'rshift']","[1.2131880419328809, 2.1954336250200868]",028,001,2023-05-05_15h19.23.523,exp_g2,2022.2.5,None,
74.0,l1,f,en,na,../audio/074.wav,,l1_f_en_na_074,,,,,,,../image/america.png,../image/spain.png,,,2,america,spain,,,,None,,,,,,,,,,,,,,,,,,,,,0,16,16,13,,,,,,,,,,,,,,,,,,,,,573.5451764999889,573.7771494589979,573.7947571250843,574.5346525416865,578.7933917089831,['lshift'],[1.2186855409527197],028,001,2023-05-05_15h19.23.523,exp_g2,2022.2.5,None,
94.0,l1,f,sp,na,../audio/094.wav,,l1_f_sp_na_094,,,,,,,../image/america.png,../image/spain.png,,,2,america,spain,,,,None,,,,,,,,,,,,,,,,,,,,,0,17,17,33,,,,,,,,,,,,,,,,,,,,,578.7933917089831,579.0277735420968,579.0344894590089,579.7841232506946,584.046422084095,['rshift'],[1.4838253339985386],028,001,2023-05-05_15h19.23.523,exp_g2,2022.2.5,None,
72.0,l1,f,en,na,../audio/072.wav,,l1_f_en_na_072,,,,,,,../image/america.png,../image/spain.png,,,2,america,spain,,,,None,,,,,,,,,,,,,,,,,,,,,0,18,18,11,,,,,,,,,,,,,,,,,,,,,584.046422084095,584.2777770000976,584.2934694170253,585.0334766257477,589.2947685000254,['lshift'],[1.2060993750346825],028,001,2023-05-05_15h19.23.523,exp_g2,2022.2.5,None,
13.0,l1,t,es,na,../audio/013.wav,,l1_t_es_na_013,,,,,,,../image/america.png,../image/spain.png,,,2,america,spain,,,,1,,,,,,,,,,,,,,,,,,,,,0,19,19,37,,,,,,,,,,,,,,,,,,,,,589.2947685000254,589.5273336250102,589.5339653750416,590.283758500653,594.5454852500698,"['lshift', 'rshift']","[1.5070403330028057, 2.6521257910644636]",028,001,2023-05-05_15h19.23.523,exp_g2,2022.2.5,None,
80.0,l1,f,se,na,../audio/080.wav,,l1_f_se_na_080,,,,,,,../image/america.png,../image/spain.png,,,2,america,spain,,,,1,,,,,,,,,,,,,,,,,,,,,0,20,20,19,,,,,,,,,,,,,,,,,,,,,594.5454852500698,594.7778688750695,594.7847227500752,595.5343560006625,599.796041249996,"['rshift', 'lshift']","[1.5014194170944393, 2.303510917001404]",028,001,2023-05-05_15h19.23.523,exp_g2,2022.2.5,None,
85.0,l1,f,se,na,../audio/085.wav,,l1_f_se_na_085,,,,,,,../image/america.png,../image/spain.png,,,2,america,spain,,,,1,,,,,,,,,,,,,,,,,,,,,0,21,21,24,,,,,,,,,,,,,,,,,,,,,599.796041249996,600.0277332090773,600.044402834028,600.7833456666597,605.0428256670712,"['rshift', 'lshift']","[1.3849892080761492, 2.501566707971506]",028,001,2023-05-05_15h19.23.523,exp_g2,2022.2.5,None,
17.0,l1,t,es,na,../audio/017.wav,,l1_t_es_na_017,,,,,,,../image/america.png,../image/spain.png,,,2,america,spain,,,,1,,,,,,,,,,,,,,,,,,,,,0,22,22,41,,,,,,,,,,,,,,,,,,,,,605.0428256670712,605.2771346250083,605.2837063750485,606.0340842507469,610.293172334088,"['lshift', 'rshift']","[1.5247877499787137, 2.4675807079765946]",028,001,2023-05-05_15h19.23.523,exp_g2,2022.2.5,None,
66.0,l1,f,en,na,../audio/066.wav,,l1_f_en_na_066,,,,,,,../image/america.png,../image/spain.png,,,2,america,spain,,,,None,,,,,,,,,,,,,,,,,,,,,0,23,23,5,,,,,,,,,,,,,,,,,,,,,610.293172334088,610.5264242920093,610.5338220000267,611.2844172086955,615.5467092919862,['lshift'],[1.4092614579712972],028,001,2023-05-05_15h19.23.523,exp_g2,2022.2.5,None,
77.0,l1,f,se,na,../audio/077.wav,,l1_f_se_na_077,,,,,,,../image/america.png,../image/spain.png,,,2,america,spain,,,,1,,,,,,,,,,,,,,,,,,,,,0,24,24,16,,,,,,,,,,,,,,,,,,,,,615.5467092919862,615.7767051670235,615.7942061250797,616.5344218756693,620.7943798340857,"['rshift', 'lshift']","[1.6625269169453532, 2.3553653339622542]",028,001,2023-05-05_15h19.23.523,exp_g2,2022.2.5,None,
86.0,l1,f,sp,na,../audio/086.wav,,l1_f_sp_na_086,,,,,,,../image/america.png,../image/spain.png,,,2,america,spain,,,,None,,,,,,,,,,,,,,,,,,,,,0,25,25,25,,,,,,,,,,,,,,,,,,,,,620.7943798340857,621.0274764590431,621.0341635000659,621.7834702507282,626.0435965420911,['rshift'],[1.4565551669802517],028,001,2023-05-05_15h19.23.523,exp_g2,2022.2.5,None,
155.0,l1,t,es,f0c,../audio/155.wav,,l1_t_es_f0c_155,,,,,,,../image/america.png,../image/spain.png,,,2,america,spain,,,,1,,,,,,,,,,,,,,,,,,,,,0,26,26,49,,,,,,,,,,,,,,,,,,,,,626.0435965420911,626.2776445420459,626.2841239590198,627.0342519586595,631.294889834011,"['lshift', 'rshift']","[1.4962552500655875, 2.1342154170852154]",028,001,2023-05-05_15h19.23.523,exp_g2,2022.2.5,None,
160.0,l1,t,es,f0c,../audio/160.wav,,l1_t_es_f0c_160,,,,,,,../image/america.png,../image/spain.png,,,2,america,spain,,,,1,,,,,,,,,,,,,,,,,,,,,0,27,27,54,,,,,,,,,,,,,,,,,,,,,631.294889834011,631.52758033399,631.5342352919979,632.2834982507086,636.5441768340534,"['lshift', 'rshift']","[1.6120602079899982, 2.6619776249863207]",028,001,2023-05-05_15h19.23.523,exp_g2,2022.2.5,None,
151.0,l1,t,es,f0c,../audio/151.wav,,l1_t_es_f0c_151,,,,,,,../image/america.png,../image/spain.png,,,2,america,spain,,,,1,,,,,,,,,,,,,,,,,,,,,0,28,28,45,,,,,,,,,,,,,,,,,,,,,636.5441768340534,636.777075375081,636.7829578340752,637.5324980837215,641.7954790419899,"['lshift', 'rshift']","[1.5235517079709098, 2.134467708063312]",028,001,2023-05-05_15h19.23.523,exp_g2,2022.2.5,None,
81.0,l1,f,se,na,../audio/081.wav,,l1_f_se_na_081,,,,,,,../image/america.png,../image/spain.png,,,2,america,spain,,,,1,,,,,,,,,,,,,,,,,,,,,0,29,29,20,,,,,,,,,,,,,,,,,,,,,641.7954790419899,642.0261600000085,642.0427902090596,642.783788208679,647.0449561250862,"['lshift', 'rshift', 'lshift']","[1.925396791077219, 2.3682726660044864, 3.5814003749983385]",028,001,2023-05-05_15h19.23.523,exp_g2,2022.2.5,None,
67.0,l1,f,en,na,../audio/067.wav,,l1_f_en_na_067,,,,,,,../image/america.png,../image/spain.png,,,2,america,spain,,,,None,,,,,,,,,,,,,,,,,,,,,0,30,30,6,,,,,,,,,,,,,,,,,,,,,647.0449561250862,647.2767901670886,647.2927912090672,648.0331976257187,652.2940003750846,['lshift'],[2.1306730000069365],028,001,2023-05-05_15h19.23.523,exp_g2,2022.2.5,None,
91.0,l1,f,sp,na,../audio/091.wav,,l1_f_sp_na_091,,,,,,,../image/america.png,../image/spain.png,,,2,america,spain,,,,None,,,,,,,,,,,,,,,,,,,,,0,31,31,30,,,,,,,,,,,,,,,,,,,,,652.2940003750846,652.5262800840428,652.544139209087,653.283890708761,657.5426349170739,['rshift'],[1.7311622080160305],028,001,2023-05-05_15h19.23.523,exp_g2,2022.2.5,None,
11.0,l1,t,es,na,../audio/011.wav,,l1_t_es_na_011,,,,,,,../image/america.png,../image/spain.png,,,2,america,spain,,,,1,,,,,,,,,,,,,,,,,,,,,0,32,32,35,,,,,,,,,,,,,,,,,,,,,657.5426349170739,657.7768754999852,657.7839215419954,658.5337990007285,662.7979397500167,"['lshift', 'rshift']","[1.6874015000648797, 2.624867625068873]",028,001,2023-05-05_15h19.23.523,exp_g2,2022.2.5,None,
15.0,l1,t,es,na,../audio/015.wav,,l1_t_es_na_015,,,,,,,../image/america.png,../image/spain.png,,,2,america,spain,,,,1,,,,,,,,,,,,,,,,,,,,,0,33,33,39,,,,,,,,,,,,,,,,,,,,,662.7979397500167,663.0271635000827,663.044008417055,663.7835560007409,668.0440437090583,"['lshift', 'rshift']","[1.5852735829539597, 2.217871750006452]",028,001,2023-05-05_15h19.23.523,exp_g2,2022.2.5,None,
63.0,l1,f,en,na,../audio/063.wav,,l1_f_en_na_063,,,,,,,../image/america.png,../image/spain.png,,,2,america,spain,,,,None,,,,,,,,,,,,,,,,,,,,,0,34,34,2,,,,,,,,,,,,,,,,,,,,,668.0440437090583,668.2760120420717,668.2939111250453,669.0336026256593,673.2927902500378,['lshift'],[1.5520654999418184],028,001,2023-05-05_15h19.23.523,exp_g2,2022.2.5,None,
19.0,l1,t,es,na,../audio/019.wav,,l1_t_es_na_019,,,,,,,../image/america.png,../image/spain.png,,,2,america,spain,,,,1,,,,,,,,,,,,,,,,,,,,,0,35,35,43,,,,,,,,,,,,,,,,,,,,,673.2927902500378,673.5266932920786,673.5332988750888,674.2836838337282,678.546196750016,"['lshift', 'rshift']","[1.4301562090404332, 2.724822917021811]",028,001,2023-05-05_15h19.23.523,exp_g2,2022.2.5,None,
90.0,l1,f,sp,na,../audio/090.wav,,l1_f_sp_na_090,,,,,,,../image/america.png,../image/spain.png,,,2,america,spain,,,,None,,,,,,,,,,,,,,,,,,,,,0,36,36,29,,,,,,,,,,,,,,,,,,,,,678.546196750016,678.7771021670196,678.7931320420466,679.5308359166995,683.7948019170435,['rshift'],[1.54161487496458],028,001,2023-05-05_15h19.23.523,exp_g2,2022.2.5,None,
82.0,l1,f,se,na,../audio/082.wav,,l1_f_se_na_082,,,,,,,../image/america.png,../image/spain.png,,,2,america,spain,,,,1,,,,,,,,,,,,,,,,,,,,,0,37,37,21,,,,,,,,,,,,,,,,,,,,,683.7948019170435,684.0271272090031,684.043775584083,684.7857951666849,689.0433155420469,"['rshift', 'lshift']","[1.280846125097014, 2.6094219170045108]",028,001,2023-05-05_15h19.23.523,exp_g2,2022.2.5,None,
83.0,l1,f,se,na,../audio/083.wav,,l1_f_se_na_083,,,,,,,../image/america.png,../image/spain.png,,,2,america,spain,,,,1,,,,,,,,,,,,,,,,,,,,,0,38,38,22,,,,,,,,,,,,,,,,,,,,,689.0433155420469,689.2767012499971,689.2837617089972,690.034370291691,694.2982307500206,"['rshift', 'lshift']","[1.459513375069946, 2.963291750056669]",028,001,2023-05-05_15h19.23.523,exp_g2,2022.2.5,None,
14.0,l1,t,es,na,../audio/014.wav,,l1_t_es_na_014,,,,,,,../image/america.png,../image/spain.png,,,2,america,spain,,,,1,,,,,,,,,,,,,,,,,,,,,0,39,39,38,,,,,,,,,,,,,,,,,,,,,694.2982307500206,694.526668000035,694.5432554590516,695.2835711256523,699.5429555419832,"['rshift', 'lshift', 'rshift']","[1.3937012500828132, 1.9286701250821352, 2.904295042040758]",028,001,2023-05-05_15h19.23.523,exp_g2,2022.2.5,None,
12.0,l1,t,es,na,../audio/012.wav,,l1_t_es_na_012,,,,,,,../image/america.png,../image/spain.png,,,2,america,spain,,,,1,,,,,,,,,,,,,,,,,,,,,0,40,40,36,,,,,,,,,,,,,,,,,,,,,699.5429555419832,699.7770066669909,699.7839328340488,700.5311790006856,704.7960222500842,"['lshift', 'rshift']","[1.8183140829205513, 2.7090959169436246]",028,001,2023-05-05_15h19.23.523,exp_g2,2022.2.5,None,
88.0,l1,f,sp,na,../audio/088.wav,,l1_f_sp_na_088,,,,,,,../image/america.png,../image/spain.png,,,2,america,spain,,,,None,,,,,,,,,,,,,,,,,,,,,0,41,41,27,,,,,,,,,,,,,,,,,,,,,704.7960222500842,705.0270324170124,705.0435827090405,705.7836295416967,710.044528709026,['rshift'],[1.5960334170376882],028,001,2023-05-05_15h19.23.523,exp_g2,2022.2.5,None,
154.0,l1,t,es,f0c,../audio/154.wav,,l1_t_es_f0c_154,,,,,,,../image/america.png,../image/spain.png,,,2,america,spain,,,,1,,,,,,,,,,,,,,,,,,,,,0,42,42,48,,,,,,,,,,,,,,,,,,,,,710.044528709026,710.2765566670569,710.2937522500288,711.0336097507427,715.3021132090362,"['lshift', 'rshift']","[1.8266665829578415, 2.654489165986888]",028,001,2023-05-05_15h19.23.523,exp_g2,2022.2.5,None,
65.0,l1,f,en,na,../audio/065.wav,,l1_f_en_na_065,,,,,,,../image/america.png,../image/spain.png,,,2,america,spain,,,,None,,,,,,,,,,,,,,,,,,,,,0,43,43,4,,,,,,,,,,,,,,,,,,,,,715.3021132090362,715.5253983750008,715.5504094590433,716.2839515417038,720.5452315000584,['lshift'],[1.2024891660548747],028,001,2023-05-05_15h19.23.523,exp_g2,2022.2.5,None,
73.0,l1,f,en,na,../audio/073.wav,,l1_f_en_na_073,,,,,,,../image/america.png,../image/spain.png,,,2,america,spain,,,,None,,,,,,,,,,,,,,,,,,,,,0,44,44,12,,,,,,,,,,,,,,,,,,,,,720.5452315000584,720.7763333340408,720.793797209044,721.5319044587125,725.7952824170934,['lshift'],[1.1847663749940693],028,001,2023-05-05_15h19.23.523,exp_g2,2022.2.5,None,
16.0,l1,t,es,na,../audio/016.wav,,l1_t_es_na_016,,,,,,,../image/america.png,../image/spain.png,,,2,america,spain,,,,1,,,,,,,,,,,,,,,,,,,,,0,45,45,40,,,,,,,,,,,,,,,,,,,,,725.7952824170934,726.0262356250314,726.0432362090796,726.7825086666892,731.0417258340167,"['lshift', 'rshift']","[1.370475957985036, 3.0292102919192985]",028,001,2023-05-05_15h19.23.523,exp_g2,2022.2.5,None,
153.0,l1,t,es,f0c,../audio/153.wav,,l1_t_es_f0c_153,,,,,,,../image/america.png,../image/spain.png,,,2,america,spain,,,,1,,,,,,,,,,,,,,,,,,,,,0,46,46,47,,,,,,,,,,,,,,,,,,,,,731.0417258340167,731.2768008750863,731.2833302500658,732.0314173336994,736.2961255420232,"['lshift', 'rshift']","[1.9069115419406444, 2.91100037493743]",028,001,2023-05-05_15h19.23.523,exp_g2,2022.2.5,None,
92.0,l1,f,sp,na,../audio/092.wav,,l1_f_sp_na_092,,,,,,,../image/america.png,../image/spain.png,,,2,america,spain,,,,None,,,,,,,,,,,,,,,,,,,,,0,47,47,31,,,,,,,,,,,,,,,,,,,,,736.2961255420232,736.526702042087,736.5435073750559,737.283699541764,741.5447401670972,['rshift'],[1.517622375045903],028,001,2023-05-05_15h19.23.523,exp_g2,2022.2.5,None,
69.0,l1,f,en,na,../audio/069.wav,,l1_f_en_na_069,,,,,,,../image/america.png,../image/spain.png,,,2,america,spain,,,,None,,,,,,,,,,,,,,,,,,,,,0,48,48,8,,,,,,,,,,,,,,,,,,,,,741.5447401670972,741.776713459054,741.7923427920323,742.5338999586568,746.7999214170268,['lshift'],[1.423205583007075],028,001,2023-05-05_15h19.23.523,exp_g2,2022.2.5,None,
89.0,l1,f,sp,na,../audio/089.wav,,l1_f_sp_na_089,,,,,,,../image/america.png,../image/spain.png,,,2,america,spain,,,,None,,,,,,,,,,,,,,,,,,,,,0,49,49,28,,,,,,,,,,,,,,,,,,,,,746.7999214170268,747.0265765000368,747.0432079590391,747.7818153757291,752.0450380000984,['rshift'],[1.4582544589648023],028,001,2023-05-05_15h19.23.523,exp_g2,2022.2.5,None,
68.0,l1,f,en,na,../audio/068.wav,,l1_f_en_na_068,,,,,,,../image/america.png,../image/spain.png,,,2,america,spain,,,,None,,,,,,,,,,,,,,,,,,,,,0,50,50,7,,,,,,,,,,,,,,,,,,,,,752.0450380000984,752.2765707500512,752.2934267090168,753.032814083683,757.2983167089988,['lshift'],[1.358227875083685],028,001,2023-05-05_15h19.23.523,exp_g2,2022.2.5,None,
70.0,l1,f,en,na,../audio/070.wav,,l1_f_en_na_070,,,,,,,../image/america.png,../image/spain.png,,,2,america,spain,,,,None,,,,,,,,,,,,,,,,,,,,,0,51,51,9,,,,,,,,,,,,,,,,,,,,,757.2983167089988,757.5280485420953,757.5426994169829,758.2839830837368,762.5514931670623,['lshift'],[1.8327119580935687],028,001,2023-05-05_15h19.23.523,exp_g2,2022.2.5,None,
62.0,l1,f,en,na,../audio/062.wav,,l1_f_en_na_062,,,,,,,../image/america.png,../image/spain.png,,,2,america,spain,,,,None,,,,,,,,,,,,,,,,,,,,,0,52,52,1,,,,,,,,,,,,,,,,,,,,,762.5514931670623,762.7766507089837,762.7922206250951,763.532659166671,767.7966567920521,['lshift'],[1.3559672499541193],028,001,2023-05-05_15h19.23.523,exp_g2,2022.2.5,None,
78.0,l1,f,se,na,../audio/078.wav,,l1_f_se_na_078,,,,,,,../image/america.png,../image/spain.png,,,2,america,spain,,,,1,,,,,,,,,,,,,,,,,,,,,0,53,53,17,,,,,,,,,,,,,,,,,,,,,767.7966567920521,768.0265548340976,768.0427710000658,768.7826161257146,773.0497214590432,['rshift'],[1.3210532079683617],028,001,2023-05-05_15h19.23.523,exp_g2,2022.2.5,None,
159.0,l1,t,es,f0c,../audio/159.wav,,l1_t_es_f0c_159,,,,,,,../image/america.png,../image/spain.png,,,2,america,spain,,,,1,,,,,,,,,,,,,,,,,,,,,0,54,54,53,,,,,,,,,,,,,,,,,,,,,773.0497214590432,773.2767469170503,773.2933682920411,774.0337462087084,778.266471167095,"['lshift', 'rshift']","[1.2372437079902738, 2.416614415938966]",028,001,2023-05-05_15h19.23.523,exp_g2,2022.2.5,None,
