num,list,cond,lang,type,sound_dir,phr,sent_code,mat,mat_num,emb_num,emb,cut,mat_f0_c,left,right,correct_img,correct,exp_num,image,image_alt,left_img,right_img,correct_key,image_dir,exp1_retrial.thisRepN,exp1_retrial.thisTrialN,exp1_retrial.thisN,exp1_retrial.thisIndex,exp1_trial_loop.thisRepN,exp1_trial_loop.thisTrialN,exp1_trial_loop.thisN,exp1_trial_loop.thisIndex,exp1_loop.thisRepN,exp1_loop.thisTrialN,exp1_loop.thisN,exp1_loop.thisIndex,exp2_retrial.thisRepN,exp2_retrial.thisTrialN,exp2_retrial.thisN,exp2_retrial.thisIndex,exp2_trial_loop.thisRepN,exp2_trial_loop.thisTrialN,exp2_trial_loop.thisN,exp2_trial_loop.thisIndex,exp1_trial_key.started,exp1_trial_key.keys,exp1_trial_key.rt,exp1_key.started,exp1_key.keys,exp1_key.rt,exp2_trial_key.started,exp2_trial_sound.started,exp2_trial_key.keys,exp2_trial_key.rt,participant,session,date,expName,psychopyVersion,frameRate,
tr1,lt,tr,en,na,../practice_trial/audio/tr1.wav,Where are your kids?,lt_tr_en_na_tr1,-,-,-,-,-,-,../image/kids.png,../image/plates.png,kids,lshift,,,,,,,,0,0,0,0,0,0,0,0,,,,,,,,,,,,,13.039645917000598,['lshift'],[0.47703658399950655],,,,,,,,032644,001,2023-04-03_13h59.33.727,exp_g1,2022.2.5,None,
tr2,lt,tr,en,na,../practice_trial/audio/tr2.wav,Who is buying my car?,lt_tr_en_na_tr2,-,-,-,-,-,-,../image/bag.png,../image/car.png,car,rshift,,,,,,,,0,0,0,0,0,1,1,1,,,,,,,,,,,,,13.563832042000286,['lshift'],[0.18649562499922467],,,,,,,,032644,001,2023-04-03_13h59.33.727,exp_g1,2022.2.5,None,
tr3,lt,tr,sp,na,../practice_trial/audio/tr3.wav,¿Dónde está mi perro?,lt_tr_sp_na_tr3,-,-,-,-,-,-,../image/dog.png,../image/grandma.png,dog,lshift,,,,,,,,0,0,0,0,0,2,2,2,,,,,,,,,,,,,13.796442500000921,['lshift'],[0.19756049999887182],,,,,,,,032644,001,2023-04-03_13h59.33.727,exp_g1,2022.2.5,None,
tr4,lt,tr,sp,na,../practice_trial/audio/tr4.wav,¿De quién es la bolsa?,lt_tr_sp_na_tr4,-,-,-,-,-,-,../image/shirt.png,../image/bag.png,bag,rshift,,,,,,,,0,0,0,0,0,3,3,3,,,,,,,,,,,,,14.033864917000756,['lshift'],[0.17188591699778044],,,,,,,,032644,001,2023-04-03_13h59.33.727,exp_g1,2022.2.5,None,
tr5,lt,tr,se,na,../practice_trial/audio/tr5.wav,¿Dónde encontraste sus donuts?,lt_tr_se_na_tr5,-,-,-,-,-,-,../image/donut.png,../image/cups.png,donut,lshift,,,,,,,,0,0,0,0,0,4,4,4,,,,,,,,,,,,,14.252847583000403,['lshift'],[0.23636379199888324],,,,,,,,032644,001,2023-04-03_13h59.33.727,exp_g1,2022.2.5,None,
tr6,lt,tr,se,na,../practice_trial/audio/tr6.wav,¿Cuándo compraste tu sweater?,lt_tr_se_na_tr6,-,-,-,-,-,-,../image/chair.png,../image/sweater.png,sweater,rshift,,,,,,,,0,0,0,0,0,5,5,5,,,,,,,,,,,,,14.529956750000565,['lshift'],[0.32595012599813344],,,,,,,,032644,001,2023-04-03_13h59.33.727,exp_g1,2022.2.5,None,
tr7,lt,tr,es,na,../practice_trial/audio/tr7.wav,Why do you have my camisa?,lt_tr_es_na_tr7,-,-,-,-,-,-,../image/shirt.png,../image/wallet.png,shirt,lshift,,,,,,,,0,0,0,0,0,6,6,6,,,,,,,,,,,,,14.899079083001197,['lshift'],[0.2583812919983757],,,,,,,,032644,001,2023-04-03_13h59.33.727,exp_g1,2022.2.5,None,
tr8,lt,tr,es,na,../practice_trial/audio/tr8.wav,Where did you find his chanclas?,lt_tr_es_na_tr8,-,-,-,-,-,-,../image/key.png,../image/flipflops.png,flipflops,rshift,,,,,,,,0,0,0,0,0,7,7,7,,,,,,,,,,,,,15.204593792001106,['lshift'],[0.32527016699896194],,,,,,,,032644,001,2023-04-03_13h59.33.727,exp_g1,2022.2.5,None,
,,,,,,,,,,,,,,,,,,,,,,,,,0,0,0,0,,,,,,,,,,,,,,,,,,,,,,,,,,,032644,001,2023-04-03_13h59.33.727,exp_g1,2022.2.5,None,
tr1,lt,tr,en,na,../practice_trial/audio/tr1.wav,Where are your kids?,lt_tr_en_na_tr1,-,-,-,-,-,-,../image/kids.png,../image/plates.png,kids,lshift,,,,,,,,1,0,1,0,0,0,0,0,,,,,,,,,,,,,18.704509125000186,['lshift'],[-0.6153516670019599],,,,,,,,032644,001,2023-04-03_13h59.33.727,exp_g1,2022.2.5,None,
tr2,lt,tr,en,na,../practice_trial/audio/tr2.wav,Who is buying my car?,lt_tr_en_na_tr2,-,-,-,-,-,-,../image/bag.png,../image/car.png,car,rshift,,,,,,,,1,0,1,0,0,1,1,1,,,,,,,,,,,,,18.72528712500025,['lshift'],[0.06122091699944576],,,,,,,,032644,001,2023-04-03_13h59.33.727,exp_g1,2022.2.5,None,
tr3,lt,tr,sp,na,../practice_trial/audio/tr3.wav,¿Dónde está mi perro?,lt_tr_sp_na_tr3,-,-,-,-,-,-,../image/dog.png,../image/grandma.png,dog,lshift,,,,,,,,1,0,1,0,0,2,2,2,,,,,,,,,,,,,18.812727542001085,['lshift'],[0.11799675099791784],,,,,,,,032644,001,2023-04-03_13h59.33.727,exp_g1,2022.2.5,None,
tr4,lt,tr,sp,na,../practice_trial/audio/tr4.wav,¿De quién es la bolsa?,lt_tr_sp_na_tr4,-,-,-,-,-,-,../image/shirt.png,../image/bag.png,bag,rshift,,,,,,,,1,0,1,0,0,3,3,3,,,,,,,,,,,,,18.964738167000178,['lshift'],[0.11588079199827916],,,,,,,,032644,001,2023-04-03_13h59.33.727,exp_g1,2022.2.5,None,
tr5,lt,tr,se,na,../practice_trial/audio/tr5.wav,¿Dónde encontraste sus donuts?,lt_tr_se_na_tr5,-,-,-,-,-,-,../image/donut.png,../image/cups.png,donut,lshift,,,,,,,,1,0,1,0,0,4,4,4,,,,,,,,,,,,,19.121729292000964,['lshift'],[0.10095058399929258],,,,,,,,032644,001,2023-04-03_13h59.33.727,exp_g1,2022.2.5,None,
tr6,lt,tr,se,na,../practice_trial/audio/tr6.wav,¿Cuándo compraste tu sweater?,lt_tr_se_na_tr6,-,-,-,-,-,-,../image/chair.png,../image/sweater.png,sweater,rshift,,,,,,,,1,0,1,0,0,5,5,5,,,,,,,,,,,,,19.25672166700133,['lshift'],[0.11556224999912956],,,,,,,,032644,001,2023-04-03_13h59.33.727,exp_g1,2022.2.5,None,
tr7,lt,tr,es,na,../practice_trial/audio/tr7.wav,Why do you have my camisa?,lt_tr_es_na_tr7,-,-,-,-,-,-,../image/shirt.png,../image/wallet.png,shirt,lshift,,,,,,,,1,0,1,0,0,6,6,6,,,,,,,,,,,,,19.410370333000174,['lshift'],[0.09426895899923693],,,,,,,,032644,001,2023-04-03_13h59.33.727,exp_g1,2022.2.5,None,
tr8,lt,tr,es,na,../practice_trial/audio/tr8.wav,Where did you find his chanclas?,lt_tr_es_na_tr8,-,-,-,-,-,-,../image/key.png,../image/flipflops.png,flipflops,rshift,,,,,,,,1,0,1,0,0,7,7,7,,,,,,,,,,,,,19.53746958300144,['lshift'],[0.1231495839983836],,,,,,,,032644,001,2023-04-03_13h59.33.727,exp_g1,2022.2.5,None,
,,,,,,,,,,,,,,,,,,,,,,,,,1,0,1,0,,,,,,,,,,,,,,,,,,,,,,,,,,,032644,001,2023-04-03_13h59.33.727,exp_g1,2022.2.5,None,
85.0,l1,f,se,na,../audio/085.wav,,l1_f_se_na_085,,,,,,,../image/loafers.png,../image/sneakers.png,sneakers,,1,sneakers,loafers,loafers,sneakers,r,None,,,,,,,,,0,0,0,24,,,,,,,,,,,,20.449560417000612,['lshift'],[-0.6466999170024792],,,,,032644,001,2023-04-03_13h59.33.727,exp_g1,2022.2.5,None,
88.0,l1,f,sp,na,../audio/088.wav,,l1_f_sp_na_088,,,,,,,../image/book.png,../image/cellphone.png,book,,1,book,cellphone,book,cellphone,l,None,,,,,,,,,0,1,1,27,,,,,,,,,,,,20.47420266700101,['rshift'],[0.5230654579991096],,,,,032644,001,2023-04-03_13h59.33.727,exp_g1,2022.2.5,None,
16.0,l1,t,es,na,../audio/016.wav,,l1_t_es_na_016,,,,,,,../image/flipflops.png,../image/bag.png,bag,,1,bag,flipflops,flipflops,bag,r,None,,,,,,,,,0,2,2,40,,,,,,,,,,,,21.04767795800035,['rshift'],[0.14193887499823177],,,,,032644,001,2023-04-03_13h59.33.727,exp_g1,2022.2.5,None,
18.0,l1,t,es,na,../audio/018.wav,,l1_t_es_na_018,,,,,,,../image/cups.png,../image/napkins.png,napkins,,1,napkins,cups,cups,napkins,r,None,,,,,,,,,0,3,3,42,,,,,,,,,,,,21.234502250001242,['rshift'],[0.1390695419995609],,,,,032644,001,2023-04-03_13h59.33.727,exp_g1,2022.2.5,None,
20.0,l1,t,es,na,../audio/020.wav,,l1_t_es_na_020,,,,,,,../image/cellphone.png,../image/backpack.png,backpack,,1,backpack,cellphone,cellphone,backpack,r,None,,,,,,,,,0,4,4,44,,,,,,,,,,,,21.409083958000338,['lshift'],[0.060707000997354044],,,,,032644,001,2023-04-03_13h59.33.727,exp_g1,2022.2.5,None,
79.0,l1,f,se,na,../audio/079.wav,,l1_f_se_na_079,,,,,,,../image/sweatpants.png,../image/jeans.png,jeans,,1,jeans,sweatpants,sweatpants,jeans,r,None,,,,,,,,,0,5,5,18,,,,,,,,,,,,21.503045833000215,['lshift'],[0.13229329199930362],,,,,032644,001,2023-04-03_13h59.33.727,exp_g1,2022.2.5,None,
82.0,l1,f,se,na,../audio/082.wav,,l1_f_se_na_082,,,,,,,../image/mickeymouse.png,../image/spongebob.png,mickeymouse,,1,mickeymouse,spongebob,mickeymouse,spongebob,l,None,,,,,,,,,0,6,6,21,,,,,,,,,,,,21.67322837500069,['lshift'],[0.1261865009983012],,,,,032644,001,2023-04-03_13h59.33.727,exp_g1,2022.2.5,None,
63.0,l1,f,en,na,../audio/063.wav,,l1_f_en_na_063,,,,,,,../image/woman.png,../image/man.png,man,,1,man,woman,woman,man,r,None,,,,,,,,,0,7,7,2,,,,,,,,,,,,21.84307741700104,['lshift'],[0.1333428339985403],,,,,032644,001,2023-04-03_13h59.33.727,exp_g1,2022.2.5,None,
137.0,l1,t,es,f0u,../audio/137.wav,,l1_t_es_f0u_137,,,,,,,../image/jacket.png,../image/shirt.png,jacket,,1,jacket,shirt,jacket,shirt,l,None,,,,,,,,,0,8,8,51,,,,,,,,,,,,22.026076625001224,['lshift'],[0.13831637599832902],,,,,032644,001,2023-04-03_13h59.33.727,exp_g1,2022.2.5,None,
64.0,l1,f,en,na,../audio/064.wav,,l1_f_en_na_064,,,,,,,../image/wallet.png,../image/key.png,wallet,,1,wallet,key,wallet,key,l,None,,,,,,,,,0,9,9,3,,,,,,,,,,,,22.211116625001523,['lshift'],[0.21339150099811377],,,,,032644,001,2023-04-03_13h59.33.727,exp_g1,2022.2.5,None,
19.0,l1,t,es,na,../audio/019.wav,,l1_t_es_na_019,,,,,,,../image/boy.png,../image/dog.png,boy,,1,boy,dog,boy,dog,l,None,,,,,,,,,0,10,10,43,,,,,,,,,,,,22.469583042000522,['lshift'],[0.13259716699758428],,,,,032644,001,2023-04-03_13h59.33.727,exp_g1,2022.2.5,None,
15.0,l1,t,es,na,../audio/015.wav,,l1_t_es_na_015,,,,,,,../image/glasses.png,../image/jacket.png,glasses,,1,glasses,jacket,glasses,jacket,l,None,,,,,,,,,0,11,11,39,,,,,,,,,,,,22.642064792000383,['lshift'],[0.16513362499790674],,,,,032644,001,2023-04-03_13h59.33.727,exp_g1,2022.2.5,None,
69.0,l1,f,en,na,../audio/069.wav,,l1_f_en_na_069,,,,,,,../image/bag.png,../image/shirt.png,shirt,,1,shirt,bag,bag,shirt,r,None,,,,,,,,,0,12,12,8,,,,,,,,,,,,22.84788608300005,['lshift'],[0.16746958399744472],,,,,032644,001,2023-04-03_13h59.33.727,exp_g1,2022.2.5,None,
77.0,l1,f,se,na,../audio/077.wav,,l1_f_se_na_077,,,,,,,../image/mashedpotatoes.png,../image/donut.png,donut,,1,donut,mashedpotatoes,mashedpotatoes,donut,r,None,,,,,,,,,0,13,13,16,,,,,,,,,,,,23.062521542000468,['lshift'],[0.13081754199811257],,,,,032644,001,2023-04-03_13h59.33.727,exp_g1,2022.2.5,None,
74.0,l1,f,en,na,../audio/074.wav,,l1_f_en_na_074,,,,,,,../image/boy.png,../image/woman.png,boy,,1,boy,woman,boy,woman,l,None,,,,,,,,,0,14,14,13,,,,,,,,,,,,23.24442033300147,['lshift'],[0.14520524999898043],,,,,032644,001,2023-04-03_13h59.33.727,exp_g1,2022.2.5,None,
80.0,l1,f,se,na,../audio/080.wav,,l1_f_se_na_080,,,,,,,../image/mouse.png,../image/rat.png,mouse,,1,mouse,rat,mouse,rat,l,None,,,,,,,,,0,15,15,19,,,,,,,,,,,,23.432846583000355,['lshift'],[0.1406234169990057],,,,,032644,001,2023-04-03_13h59.33.727,exp_g1,2022.2.5,None,
13.0,l1,t,es,na,../audio/013.wav,,l1_t_es_na_013,,,,,,,../image/beer.png,../image/wine.png,beer,,1,beer,wine,beer,wine,l,None,,,,,,,,,0,16,16,37,,,,,,,,,,,,23.614891667000848,['lshift'],[0.16066516699902422],,,,,032644,001,2023-04-03_13h59.33.727,exp_g1,2022.2.5,None,
83.0,l1,f,se,na,../audio/083.wav,,l1_f_se_na_083,,,,,,,../image/donut.png,../image/burger.png,burger,,1,burger,donut,donut,burger,r,None,,,,,,,,,0,17,17,22,,,,,,,,,,,,23.823920833001466,['lshift'],[0.1534434589993907],,,,,032644,001,2023-04-03_13h59.33.727,exp_g1,2022.2.5,None,
61.0,l1,f,en,na,../audio/061.wav,,l1_f_en_na_061,,,,,,,../image/cat.png,../image/dog.png,dog,,1,dog,cat,cat,dog,r,../image/,,,,,,,,,0,18,18,0,,,,,,,,,,,,24.029446624999764,['lshift'],[0.15029695899829676],,,,,032644,001,2023-04-03_13h59.33.727,exp_g1,2022.2.5,None,
86.0,l1,f,sp,na,../audio/086.wav,,l1_f_sp_na_086,,,,,,,../image/plates.png,../image/glasses.png,plates,,1,plates,glasses,plates,glasses,l,None,,,,,,,,,0,19,19,25,,,,,,,,,,,,24.224969375,['lshift'],[0.13991970899769512],,,,,032644,001,2023-04-03_13h59.33.727,exp_g1,2022.2.5,None,
132.0,l1,t,es,f0u,../audio/132.wav,,l1_t_es_f0u_132,,,,,,,../image/car.png,../image/grandma.png,grandma,,1,grandma,car,car,grandma,r,None,,,,,,,,,0,20,20,46,,,,,,,,,,,,24.41251787500005,['lshift'],[0.13272029199833923],,,,,032644,001,2023-04-03_13h59.33.727,exp_g1,2022.2.5,None,
68.0,l1,f,en,na,../audio/068.wav,,l1_f_en_na_068,,,,,,,../image/socks.png,../image/book.png,socks,,1,socks,book,socks,book,l,None,,,,,,,,,0,21,21,7,,,,,,,,,,,,24.591623792000973,['lshift'],[0.1480362080001214],,,,,032644,001,2023-04-03_13h59.33.727,exp_g1,2022.2.5,None,
72.0,l1,f,en,na,../audio/072.wav,,l1_f_en_na_072,,,,,,,../image/dog.png,../image/fish.png,dog,,1,dog,fish,dog,fish,l,None,,,,,,,,,0,22,22,11,,,,,,,,,,,,24.782677541999874,['lshift'],[0.17645745899972098],,,,,032644,001,2023-04-03_13h59.33.727,exp_g1,2022.2.5,None,
134.0,l1,t,es,f0u,../audio/134.wav,,l1_t_es_f0u_134,,,,,,,../image/basket.png,../image/truck.png,truck,,1,truck,basket,basket,truck,r,None,,,,,,,,,0,23,23,48,,,,,,,,,,,,25.005920958001298,['lshift'],[0.17311679199883656],,,,,032644,001,2023-04-03_13h59.33.727,exp_g1,2022.2.5,None,
62.0,l1,f,en,na,../audio/062.wav,,l1_f_en_na_062,,,,,,,../image/shoe.png,../image/ring.png,shoe,,1,shoe,ring,shoe,ring,l,None,,,,,,,,,0,24,24,1,,,,,,,,,,,,25.22974087500006,['lshift'],[0.13817645899871422],,,,,032644,001,2023-04-03_13h59.33.727,exp_g1,2022.2.5,None,
138.0,l1,t,es,f0u,../audio/138.wav,,l1_t_es_f0u_138,,,,,,,../image/pants.png,../image/shirt.png,shirt,,1,shirt,pants,pants,shirt,r,None,,,,,,,,,0,25,25,52,,,,,,,,,,,,25.4093149170003,['lshift'],[0.1619870419981453],,,,,032644,001,2023-04-03_13h59.33.727,exp_g1,2022.2.5,None,
131.0,l1,t,es,f0u,../audio/131.wav,,l1_t_es_f0u_131,,,,,,,../image/cat.png,../image/flower.png,cat,,1,cat,flower,cat,flower,l,None,,,,,,,,,0,26,26,45,,,,,,,,,,,,25.612208292001014,['lshift'],[0.1769761669984291],,,,,032644,001,2023-04-03_13h59.33.727,exp_g1,2022.2.5,None,
81.0,l1,f,se,na,../audio/081.wav,,l1_f_se_na_081,,,,,,,../image/boxers.png,../image/sweatpants.png,sweatpants,,1,sweatpants,boxers,boxers,sweatpants,r,None,,,,,,,,,0,27,27,20,,,,,,,,,,,,25.83723050000117,['lshift'],[0.16847170899927733],,,,,032644,001,2023-04-03_13h59.33.727,exp_g1,2022.2.5,None,
65.0,l1,f,en,na,../audio/065.wav,,l1_f_en_na_065,,,,,,,../image/computer.png,../image/book.png,book,,1,book,computer,computer,book,r,None,,,,,,,,,0,28,28,4,,,,,,,,,,,,26.047255167000912,['lshift'],[0.13342187499802094],,,,,032644,001,2023-04-03_13h59.33.727,exp_g1,2022.2.5,None,
71.0,l1,f,en,na,../audio/071.wav,,l1_f_en_na_071,,,,,,,../image/wallet.png,../image/plane.png,plane,,1,plane,wallet,wallet,plane,r,None,,,,,,,,,0,29,29,10,,,,,,,,,,,,26.228825207999762,['lshift'],[0.12155683299715747],,,,,032644,001,2023-04-03_13h59.33.727,exp_g1,2022.2.5,None,
78.0,l1,f,se,na,../audio/078.wav,,l1_f_se_na_078,,,,,,,../image/airpods.png,../image/joycons.png,airpods,,1,airpods,joycons,airpods,joycons,l,None,,,,,,,,,0,30,30,17,,,,,,,,,,,,26.38927387500007,['lshift'],[0.16218045899950084],,,,,032644,001,2023-04-03_13h59.33.727,exp_g1,2022.2.5,None,
93.0,l1,f,sp,na,../audio/093.wav,,l1_f_sp_na_093,,,,,,,../image/boy.png,../image/book.png,book,,1,book,boy,boy,book,r,None,,,,,,,,,0,31,31,32,,,,,,,,,,,,26.596141875001194,['lshift'],[0.1440852919986355],,,,,032644,001,2023-04-03_13h59.33.727,exp_g1,2022.2.5,None,
136.0,l1,t,es,f0u,../audio/136.wav,,l1_t_es_f0u_136,,,,,,,../image/city.png,../image/village.png,village,,1,village,city,city,village,r,None,,,,,,,,,0,32,32,50,,,,,,,,,,,,26.784320624999964,['lshift'],[0.16056491699782782],,,,,032644,001,2023-04-03_13h59.33.727,exp_g1,2022.2.5,None,
73.0,l1,f,en,na,../audio/073.wav,,l1_f_en_na_073,,,,,,,../image/socks.png,../image/tshirt.png,tshirt,,1,tshirt,socks,socks,tshirt,r,None,,,,,,,,,0,33,33,12,,,,,,,,,,,,26.99316162500145,['lshift'],[0.13908474999880127],,,,,032644,001,2023-04-03_13h59.33.727,exp_g1,2022.2.5,None,
12.0,l1,t,es,na,../audio/012.wav,,l1_t_es_na_012,,,,,,,../image/newspaper.png,../image/book.png,book,,1,book,newspaper,newspaper,book,r,None,,,,,,,,,0,34,34,36,,,,,,,,,,,,27.179483375000927,['lshift'],[0.16812845799904608],,,,,032644,001,2023-04-03_13h59.33.727,exp_g1,2022.2.5,None,
17.0,l1,t,es,na,../audio/017.wav,,l1_t_es_na_017,,,,,,,../image/jug.png,../image/cat.png,jug,,1,jug,cat,jug,cat,l,None,,,,,,,,,0,35,35,41,,,,,,,,,,,,27.394445500000074,['lshift'],[0.16240299999844865],,,,,032644,001,2023-04-03_13h59.33.727,exp_g1,2022.2.5,None,
75.0,l1,f,en,na,../audio/075.wav,,l1_f_en_na_075,,,,,,,../image/dog.png,../image/fish.png,fish,,1,fish,dog,dog,fish,r,None,,,,,,,,,0,36,36,14,,,,,,,,,,,,27.599828125001295,['lshift'],[0.14515804199800186],,,,,032644,001,2023-04-03_13h59.33.727,exp_g1,2022.2.5,None,
87.0,l1,f,sp,na,../audio/087.wav,,l1_f_sp_na_087,,,,,,,../image/desk.png,../image/bed.png,bed,,1,bed,desk,desk,bed,r,None,,,,,,,,,0,37,37,26,,,,,,,,,,,,27.798754625000583,['lshift'],[0.1467683329974534],,,,,032644,001,2023-04-03_13h59.33.727,exp_g1,2022.2.5,None,
70.0,l1,f,en,na,../audio/070.wav,,l1_f_en_na_070,,,,,,,../image/computer.png,../image/bed.png,computer,,1,computer,bed,computer,bed,l,None,,,,,,,,,0,38,38,9,,,,,,,,,,,,27.993889708001007,['lshift'],[0.1522744169978978],,,,,032644,001,2023-04-03_13h59.33.727,exp_g1,2022.2.5,None,
84.0,l1,f,se,na,../audio/084.wav,,l1_f_se_na_084,,,,,,,../image/penthouse.png,../image/rocket.png,penthouse,,1,penthouse,rocket,penthouse,rocket,l,None,,,,,,,,,0,39,39,23,,,,,,,,,,,,28.199083667001105,['lshift'],[0.13867041699813853],,,,,032644,001,2023-04-03_13h59.33.727,exp_g1,2022.2.5,None,
139.0,l1,t,es,f0u,../audio/139.wav,,l1_t_es_f0u_139,,,,,,,../image/restaurant.png,../image/hotel.png,restaurant,,1,restaurant,hotel,restaurant,hotel,l,None,,,,,,,,,0,40,40,53,,,,,,,,,,,,28.38205016699976,['lshift'],[0.19131729199943948],,,,,032644,001,2023-04-03_13h59.33.727,exp_g1,2022.2.5,None,
94.0,l1,f,sp,na,../audio/094.wav,,l1_f_sp_na_094,,,,,,,../image/beer.png,../image/horchata.png,beer,,1,beer,horchata,beer,horchata,l,None,,,,,,,,,0,41,41,33,,,,,,,,,,,,28.616707958000916,['lshift'],[0.133050333999563],,,,,032644,001,2023-04-03_13h59.33.727,exp_g1,2022.2.5,None,
89.0,l1,f,sp,na,../audio/089.wav,,l1_f_sp_na_089,,,,,,,../image/bed.png,../image/wallet.png,wallet,,1,wallet,bed,bed,wallet,r,None,,,,,,,,,0,42,42,28,,,,,,,,,,,,28.797538292001263,['lshift'],[0.13554554199799895],,,,,032644,001,2023-04-03_13h59.33.727,exp_g1,2022.2.5,None,
14.0,l1,t,es,na,../audio/014.wav,,l1_t_es_na_014,,,,,,,../image/book.png,../image/key.png,key,,1,key,book,book,key,r,None,,,,,,,,,0,43,43,38,,,,,,,,,,,,28.973877792001076,['lshift'],[0.1281258329981938],,,,,032644,001,2023-04-03_13h59.33.727,exp_g1,2022.2.5,None,
91.0,l1,f,sp,na,../audio/091.wav,,l1_f_sp_na_091,,,,,,,../image/backpack.png,../image/bracelet.png,bracelet,,1,bracelet,backpack,backpack,bracelet,r,None,,,,,,,,,0,44,44,30,,,,,,,,,,,,29.14443329200003,['lshift'],[0.16737766699952772],,,,,032644,001,2023-04-03_13h59.33.727,exp_g1,2022.2.5,None,
11.0,l1,t,es,na,../audio/011.wav,,l1_t_es_na_011,,,,,,,../image/armchair.png,../image/bed.png,armchair,,1,armchair,bed,armchair,bed,l,None,,,,,,,,,0,45,45,35,,,,,,,,,,,,29.356226542000513,['lshift'],[0.177965791999668],,,,,032644,001,2023-04-03_13h59.33.727,exp_g1,2022.2.5,None,
135.0,l1,t,es,f0u,../audio/135.wav,,l1_t_es_f0u_135,,,,,,,../image/flipflops.png,../image/flower.png,flipflops,,1,flipflops,flower,flipflops,flower,l,None,,,,,,,,,0,46,46,49,,,,,,,,,,,,29.580949083001542,['lshift'],[0.18550237499948707],,,,,032644,001,2023-04-03_13h59.33.727,exp_g1,2022.2.5,None,
90.0,l1,f,sp,na,../audio/090.wav,,l1_f_sp_na_090,,,,,,,../image/bag.png,../image/bottle.png,bag,,1,bag,bottle,bag,bottle,l,None,,,,,,,,,0,47,47,29,,,,,,,,,,,,29.80881033300102,['lshift'],[0.19784295899808058],,,,,032644,001,2023-04-03_13h59.33.727,exp_g1,2022.2.5,None,
133.0,l1,t,es,f0u,../audio/133.wav,,l1_t_es_f0u_133,,,,,,,../image/cellphone.png,../image/book.png,cellphone,,1,cellphone,book,cellphone,book,l,None,,,,,,,,,0,48,48,47,,,,,,,,,,,,30.04920170800142,['lshift'],[0.2015512089983531],,,,,032644,001,2023-04-03_13h59.33.727,exp_g1,2022.2.5,None,
67.0,l1,f,en,na,../audio/067.wav,,l1_f_en_na_067,,,,,,,../image/beer.png,../image/glasses.png,glasses,,1,glasses,beer,beer,glasses,r,None,,,,,,,,,0,49,49,6,,,,,,,,,,,,30.292046458000186,['lshift'],[0.21433949999845936],,,,,032644,001,2023-04-03_13h59.33.727,exp_g1,2022.2.5,None,
140.0,l1,t,es,f0u,../audio/140.wav,,l1_t_es_f0u_140,,,,,,,../image/ring.png,../image/bracelet.png,bracelet,,1,bracelet,ring,ring,bracelet,r,None,,,,,,,,,0,50,50,54,,,,,,,,,,,,30.5505476670005,['lshift'],[0.1912813749986526],,,,,032644,001,2023-04-03_13h59.33.727,exp_g1,2022.2.5,None,
66.0,l1,f,en,na,../audio/066.wav,,l1_f_en_na_066,,,,,,,../image/bag.png,../image/scarf.png,bag,,1,bag,scarf,bag,scarf,l,None,,,,,,,,,0,51,51,5,,,,,,,,,,,,30.784511583000494,['lshift'],[0.19313866699849314],,,,,032644,001,2023-04-03_13h59.33.727,exp_g1,2022.2.5,None,
76.0,l1,f,se,na,../audio/076.wav,,l1_f_se_na_076,,,,,,,../image/hotdog.png,../image/burger.png,hotdog,,1,hotdog,burger,hotdog,burger,l,None,,,,,,,,,0,52,52,15,,,,,,,,,,,,31.02306133300044,['lshift'],[0.1835468339977524],,,,,032644,001,2023-04-03_13h59.33.727,exp_g1,2022.2.5,None,
92.0,l1,f,sp,na,../audio/092.wav,,l1_f_sp_na_092,,,,,,,../image/armchair.png,../image/dog.png,armchair,,1,armchair,dog,armchair,dog,l,None,,,,,,,,,0,53,53,31,,,,,,,,,,,,31.25281725000059,['lshift'],[0.1906159589998424],,,,,032644,001,2023-04-03_13h59.33.727,exp_g1,2022.2.5,None,
95.0,l1,f,sp,na,../audio/095.wav,,l1_f_sp_na_095,,,,,,,../image/socks.png,../image/key.png,key,,1,key,socks,socks,key,r,None,,,,,,,,,0,54,54,34,,,,,,,,,,,,31.48125041700041,['lshift'],[0.15808470799856877],,,,,032644,001,2023-04-03_13h59.33.727,exp_g1,2022.2.5,None,
tr1,lt,tr,en,na,../practice_trial/audio/tr1.wav,Where are your kids?,lt_tr_en_na_tr1,-,-,-,-,-,-,../image/america.png,../image/spain.png,,,,,,,,,,,,,,,,,,,,,,0,0,0,0,0,0,0,0,,,,,,,36.43287975000021,37.37796374966662,['lshift'],[2.9661278749990743],032644,001,2023-04-03_13h59.33.727,exp_g1,2022.2.5,None,
tr2,lt,tr,en,na,../practice_trial/audio/tr2.wav,Who is buying my car?,lt_tr_en_na_tr2,-,-,-,-,-,-,../image/america.png,../image/spain.png,,,,,,,,,,,,,,,,,,,,,,0,0,0,0,0,1,1,1,,,,,,,41.406195875000776,42.37758987466647,['lshift'],[2.713550625998323],032644,001,2023-04-03_13h59.33.727,exp_g1,2022.2.5,None,
tr3,lt,tr,sp,na,../practice_trial/audio/tr3.wav,¿Dónde está mi perro?,lt_tr_sp_na_tr3,-,-,-,-,-,-,../image/america.png,../image/spain.png,,,,,,,,,,,,,,,,,,,,,,0,0,0,0,0,2,2,2,,,,,,,46.4094218750015,47.378145124667085,None,,032644,001,2023-04-03_13h59.33.727,exp_g1,2022.2.5,None,
tr4,lt,tr,sp,na,../practice_trial/audio/tr4.wav,¿De quién es la bolsa?,lt_tr_sp_na_tr4,-,-,-,-,-,-,../image/america.png,../image/spain.png,,,,,,,,,,,,,,,,,,,,,,0,0,0,0,0,3,3,3,,,,,,,51.40878666700155,52.37742799966715,None,,032644,001,2023-04-03_13h59.33.727,exp_g1,2022.2.5,None,
tr5,lt,tr,se,na,../practice_trial/audio/tr5.wav,¿Dónde encontraste sus donuts?,lt_tr_se_na_tr5,-,-,-,-,-,-,../image/america.png,../image/spain.png,,,,,,,,,,,,,,,,,,,,,,0,0,0,0,0,4,4,4,,,,,,,56.413844874999995,57.37846999966702,None,,032644,001,2023-04-03_13h59.33.727,exp_g1,2022.2.5,None,
tr6,lt,tr,se,na,../practice_trial/audio/tr6.wav,¿Cuándo compraste tu sweater?,lt_tr_se_na_tr6,-,-,-,-,-,-,../image/america.png,../image/spain.png,,,,,,,,,,,,,,,,,,,,,,0,0,0,0,0,5,5,5,,,,,,,61.41137054200044,62.37741866666717,['lshift'],[4.195829624999533],032644,001,2023-04-03_13h59.33.727,exp_g1,2022.2.5,None,
tr7,lt,tr,es,na,../practice_trial/audio/tr7.wav,Why do you have my camisa?,lt_tr_es_na_tr7,-,-,-,-,-,-,../image/america.png,../image/spain.png,,,,,,,,,,,,,,,,,,,,,,0,0,0,0,0,6,6,6,,,,,,,66.41318945800049,67.377946083667,None,,032644,001,2023-04-03_13h59.33.727,exp_g1,2022.2.5,None,
tr8,lt,tr,es,na,../practice_trial/audio/tr8.wav,Where did you find his chanclas?,lt_tr_es_na_tr8,-,-,-,-,-,-,../image/america.png,../image/spain.png,,,,,,,,,,,,,,,,,,,,,,0,0,0,0,0,7,7,7,,,,,,,71.41294579200076,72.37791712466812,None,,032644,001,2023-04-03_13h59.33.727,exp_g1,2022.2.5,None,
