num,list,cond,lang,type,sound_dir,phr,sent_code,mat,mat_num,emb_num,emb,cut,mat_f0_c,left,right,correct_img,correct_key,exp_num,image,image_alt,left_img,right_img,image_dir,exp1_retrial.thisRepN,exp1_retrial.thisTrialN,exp1_retrial.thisN,exp1_retrial.thisIndex,exp1_trial_loop.thisRepN,exp1_trial_loop.thisTrialN,exp1_trial_loop.thisN,exp1_trial_loop.thisIndex,exp1_loop.thisRepN,exp1_loop.thisTrialN,exp1_loop.thisN,exp1_loop.thisIndex,exp2_retrial.thisRepN,exp2_retrial.thisTrialN,exp2_retrial.thisN,exp2_retrial.thisIndex,exp2_trial_loop.thisRepN,exp2_trial_loop.thisTrialN,exp2_trial_loop.thisN,exp2_trial_loop.thisIndex,exp1_trial_key.started,exp1_trial_sound.started,exp1_trial_key.keys,exp1_trial_key.rt,exp1_key.started,exp1_key.keys,exp1_key.corr,exp1_key.rt,exp2_trial_key.started,exp2_trial_sound.started,exp2_trial_key.keys,exp2_trial_key.rt,participant,session,date,expName,psychopyVersion,frameRate,
tr1,lt,tr,en,na,../practice_trial/audio/tr1.wav,Where are your kids?,lt_tr_en_na_tr1,-,-,-,-,-,-,../image/kids.png,../image/plates.png,kids,lshift,,,,,,,0,0,0,0,0,0,0,0,,,,,,,,,,,,,12.534333333998802,13.467773958666173,['lshift'],[1.6238275820069248],,,,,,,,,358659,001,2023-04-05_13h34.20.886,exp_g1,2022.2.5,None,
tr2,lt,tr,en,na,../practice_trial/audio/tr2.wav,Who is buying my car?,lt_tr_en_na_tr2,-,-,-,-,-,-,../image/bag.png,../image/car.png,car,rshift,,,,,,,0,0,0,0,0,1,1,1,,,,,,,,,,,,,14.205738749995362,,['lshift'],[0.22554895800567465],,,,,,,,,358659,001,2023-04-05_13h34.20.886,exp_g1,2022.2.5,None,
tr3,lt,tr,sp,na,../practice_trial/audio/tr3.wav,¿Dónde está mi perro?,lt_tr_sp_na_tr3,-,-,-,-,-,-,../image/dog.png,../image/grandma.png,dog,lshift,,,,,,,0,0,0,0,0,2,2,2,,,,,,,,,,,,,14.477376625000034,,['lshift'],[0.2368473750029807],,,,,,,,,358659,001,2023-04-05_13h34.20.886,exp_g1,2022.2.5,None,
tr4,lt,tr,sp,na,../practice_trial/audio/tr4.wav,¿De quién es la bolsa?,lt_tr_sp_na_tr4,-,-,-,-,-,-,../image/shirt.png,../image/bag.png,bag,rshift,,,,,,,0,0,0,0,0,3,3,3,,,,,,,,,,,,,14.756660749997536,,['lshift'],[0.19689508200826822],,,,,,,,,358659,001,2023-04-05_13h34.20.886,exp_g1,2022.2.5,None,
tr5,lt,tr,se,na,../practice_trial/audio/tr5.wav,¿Dónde encontraste sus donuts?,lt_tr_se_na_tr5,-,-,-,-,-,-,../image/donut.png,../image/cups.png,donut,lshift,,,,,,,0,0,0,0,0,4,4,4,,,,,,,,,,,,,15.003776999998081,,['lshift'],[0.14371191600366728],,,,,,,,,358659,001,2023-04-05_13h34.20.886,exp_g1,2022.2.5,None,
tr6,lt,tr,se,na,../practice_trial/audio/tr6.wav,¿Cuándo compraste tu sweater?,lt_tr_se_na_tr6,-,-,-,-,-,-,../image/chair.png,../image/sweater.png,sweater,rshift,,,,,,,0,0,0,0,0,5,5,5,,,,,,,,,,,,,15.189123958996788,,['lshift'],[0.386312665999867],,,,,,,,,358659,001,2023-04-05_13h34.20.886,exp_g1,2022.2.5,None,
tr7,lt,tr,es,na,../practice_trial/audio/tr7.wav,Why do you have my camisa?,lt_tr_es_na_tr7,-,-,-,-,-,-,../image/shirt.png,../image/wallet.png,shirt,lshift,,,,,,,0,0,0,0,0,6,6,6,,,,,,,,,,,,,15.622131166994222,,['lshift'],[0.2259337490031612],,,,,,,,,358659,001,2023-04-05_13h34.20.886,exp_g1,2022.2.5,None,
tr8,lt,tr,es,na,../practice_trial/audio/tr8.wav,Where did you find his chanclas?,lt_tr_es_na_tr8,-,-,-,-,-,-,../image/key.png,../image/flipflops.png,flipflops,rshift,,,,,,,0,0,0,0,0,7,7,7,,,,,,,,,,,,,15.891254833994026,,['lshift'],[0.1516287490085233],,,,,,,,,358659,001,2023-04-05_13h34.20.886,exp_g1,2022.2.5,None,
,,,,,,,,,,,,,,,,,,,,,,,,0,0,0,0,,,,,,,,,,,,,,,,,,,,,,,,,,,,,358659,001,2023-04-05_13h34.20.886,exp_g1,2022.2.5,None,
12.0,l1,t,es,na,../audio/012.wav,,l1_t_es_na_012,,,,,,,../image/newspaper.png,../image/book.png,book,lshift,1,book,newspaper,newspaper,book,None,,,,,,,,,0,0,0,36,,,,,,,,,,,,,17.33592237499397,lshift,1,-1.149666500998137,,,,,358659,001,2023-04-05_13h34.20.886,exp_g1,2022.2.5,None,
68.0,l1,f,en,na,../audio/068.wav,,l1_f_en_na_068,,,,,,,../image/socks.png,../image/book.png,socks,lshift,1,socks,book,socks,book,None,,,,,,,,,0,1,1,7,,,,,,,,,,,,,17.359222249993763,lshift,1,0.5273331240023253,,,,,358659,001,2023-04-05_13h34.20.886,exp_g1,2022.2.5,None,
11.0,l1,t,es,na,../audio/011.wav,,l1_t_es_na_011,,,,,,,../image/armchair.png,../image/bed.png,armchair,rshift,1,armchair,bed,armchair,bed,None,,,,,,,,,0,2,2,35,,,,,,,,,,,,,17.935263666993706,lshift,0,0.25305574900994543,,,,,358659,001,2023-04-05_13h34.20.886,exp_g1,2022.2.5,None,
131.0,l1,t,es,f0u,../audio/131.wav,,l1_t_es_f0u_131,,,,,,,../image/cat.png,../image/flower.png,cat,rshift,1,cat,flower,cat,flower,None,,,,,,,,,0,3,3,45,,,,,,,,,,,,,18.239032374993258,lshift,0,0.17545712400169577,,,,,358659,001,2023-04-05_13h34.20.886,exp_g1,2022.2.5,None,
80.0,l1,f,se,na,../audio/080.wav,,l1_f_se_na_080,,,,,,,../image/mouse.png,../image/rat.png,mouse,lshift,1,mouse,rat,mouse,rat,None,,,,,,,,,0,4,4,19,,,,,,,,,,,,,18.461153458993067,lshift,1,0.15649899900745368,,,,,358659,001,2023-04-05_13h34.20.886,exp_g1,2022.2.5,None,
67.0,l1,f,en,na,../audio/067.wav,,l1_f_en_na_067,,,,,,,../image/beer.png,../image/glasses.png,glasses,rshift,1,glasses,beer,beer,glasses,None,,,,,,,,,0,5,5,6,,,,,,,,,,,,,18.667946458997903,lshift,0,0.1506544580042828,,,,,358659,001,2023-04-05_13h34.20.886,exp_g1,2022.2.5,None,
89.0,l1,f,sp,na,../audio/089.wav,,l1_f_sp_na_089,,,,,,,../image/bed.png,../image/wallet.png,wallet,lshift,1,wallet,bed,bed,wallet,None,,,,,,,,,0,6,6,28,,,,,,,,,,,,,18.864315083999827,lshift,1,0.20800641600362724,,,,,358659,001,2023-04-05_13h34.20.886,exp_g1,2022.2.5,None,
64.0,l1,f,en,na,../audio/064.wav,,l1_f_en_na_064,,,,,,,../image/wallet.png,../image/key.png,wallet,lshift,1,wallet,key,wallet,key,None,,,,,,,,,0,7,7,3,,,,,,,,,,,,,19.122467791996314,rshift,0,0.15960433300642762,,,,,358659,001,2023-04-05_13h34.20.886,exp_g1,2022.2.5,None,
63.0,l1,f,en,na,../audio/063.wav,,l1_f_en_na_063,,,,,,,../image/woman.png,../image/man.png,man,rshift,1,man,woman,woman,man,None,,,,,,,,,0,8,8,2,,,,,,,,,,,,,19.324683374994493,lshift,0,0.15235795700573362,,,,,358659,001,2023-04-05_13h34.20.886,exp_g1,2022.2.5,None,
132.0,l1,t,es,f0u,../audio/132.wav,,l1_t_es_f0u_132,,,,,,,../image/car.png,../image/grandma.png,grandma,lshift,1,grandma,car,car,grandma,None,,,,,,,,,0,9,9,46,,,,,,,,,,,,,19.519964166996942,rshift,0,0.1941070410030079,,,,,358659,001,2023-04-05_13h34.20.886,exp_g1,2022.2.5,None,
81.0,l1,f,se,na,../audio/081.wav,,l1_f_se_na_081,,,,,,,../image/boxers.png,../image/sweatpants.png,sweatpants,rshift,1,sweatpants,boxers,boxers,sweatpants,None,,,,,,,,,0,10,10,20,,,,,,,,,,,,,19.760722166996857,lshift,0,0.09014212400506949,,,,,358659,001,2023-04-05_13h34.20.886,exp_g1,2022.2.5,None,
138.0,l1,t,es,f0u,../audio/138.wav,,l1_t_es_f0u_138,,,,,,,../image/pants.png,../image/shirt.png,shirt,lshift,1,shirt,pants,pants,shirt,None,,,,,,,,,0,11,11,52,,,,,,,,,,,,,19.88507604199549,rshift,0,0.18863891600631177,,,,,358659,001,2023-04-05_13h34.20.886,exp_g1,2022.2.5,None,
137.0,l1,t,es,f0u,../audio/137.wav,,l1_t_es_f0u_137,,,,,,,../image/jacket.png,../image/shirt.png,jacket,rshift,1,jacket,shirt,jacket,shirt,None,,,,,,,,,0,12,12,51,,,,,,,,,,,,,20.118109958995774,lshift,0,0.1296898740110919,,,,,358659,001,2023-04-05_13h34.20.886,exp_g1,2022.2.5,None,
92.0,l1,f,sp,na,../audio/092.wav,,l1_f_sp_na_092,,,,,,,../image/armchair.png,../image/dog.png,armchair,rshift,1,armchair,dog,armchair,dog,None,,,,,,,,,0,13,13,31,,,,,,,,,,,,,20.293225874993368,rshift,1,0.17255766600283096,,,,,358659,001,2023-04-05_13h34.20.886,exp_g1,2022.2.5,None,
75.0,l1,f,en,na,../audio/075.wav,,l1_f_en_na_075,,,,,,,../image/dog.png,../image/fish.png,fish,rshift,1,fish,dog,dog,fish,None,,,,,,,,,0,14,14,14,,,,,,,,,,,,,20.506172916997457,lshift,0,0.1542986240092432,,,,,358659,001,2023-04-05_13h34.20.886,exp_g1,2022.2.5,None,
86.0,l1,f,sp,na,../audio/086.wav,,l1_f_sp_na_086,,,,,,,../image/plates.png,../image/glasses.png,plates,lshift,1,plates,glasses,plates,glasses,None,,,,,,,,,0,15,15,25,,,,,,,,,,,,,20.699552208992827,rshift,0,0.1560740830100258,,,,,358659,001,2023-04-05_13h34.20.886,exp_g1,2022.2.5,None,
90.0,l1,f,sp,na,../audio/090.wav,,l1_f_sp_na_090,,,,,,,../image/bag.png,../image/bottle.png,bag,rshift,1,bag,bottle,bag,bottle,None,,,,,,,,,0,16,16,29,,,,,,,,,,,,,20.901456749998033,lshift,0,0.12852362500416348,,,,,358659,001,2023-04-05_13h34.20.886,exp_g1,2022.2.5,None,
79.0,l1,f,se,na,../audio/079.wav,,l1_f_se_na_079,,,,,,,../image/sweatpants.png,../image/jeans.png,jeans,rshift,1,jeans,sweatpants,sweatpants,jeans,None,,,,,,,,,0,17,17,18,,,,,,,,,,,,,21.06707779199496,rshift,1,0.15420641600212548,,,,,358659,001,2023-04-05_13h34.20.886,exp_g1,2022.2.5,None,
13.0,l1,t,es,na,../audio/013.wav,,l1_t_es_na_013,,,,,,,../image/beer.png,../image/wine.png,beer,rshift,1,beer,wine,beer,wine,None,,,,,,,,,0,18,18,37,,,,,,,,,,,,,21.269208916994103,lshift,0,0.11604091600747779,,,,,358659,001,2023-04-05_13h34.20.886,exp_g1,2022.2.5,None,
74.0,l1,f,en,na,../audio/074.wav,,l1_f_en_na_074,,,,,,,../image/boy.png,../image/woman.png,boy,lshift,1,boy,woman,boy,woman,None,,,,,,,,,0,19,19,13,,,,,,,,,,,,,21.42324370899587,rshift,0,0.159679041003983,,,,,358659,001,2023-04-05_13h34.20.886,exp_g1,2022.2.5,None,
72.0,l1,f,en,na,../audio/072.wav,,l1_f_en_na_072,,,,,,,../image/dog.png,../image/fish.png,dog,lshift,1,dog,fish,dog,fish,None,,,,,,,,,0,20,20,11,,,,,,,,,,,,,21.62358816699998,lshift,1,0.09576145800383529,,,,,358659,001,2023-04-05_13h34.20.886,exp_g1,2022.2.5,None,
88.0,l1,f,sp,na,../audio/088.wav,,l1_f_sp_na_088,,,,,,,../image/book.png,../image/cellphone.png,book,rshift,1,book,cellphone,book,cellphone,None,,,,,,,,,0,21,21,27,,,,,,,,,,,,,21.76620924999588,rshift,1,0.13505629100109218,,,,,358659,001,2023-04-05_13h34.20.886,exp_g1,2022.2.5,None,
18.0,l1,t,es,na,../audio/018.wav,,l1_t_es_na_018,,,,,,,../image/cups.png,../image/napkins.png,napkins,lshift,1,napkins,cups,cups,napkins,None,,,,,,,,,0,22,22,42,,,,,,,,,,,,,21.951745583995944,lshift,1,0.10915291600394994,,,,,358659,001,2023-04-05_13h34.20.886,exp_g1,2022.2.5,None,
70.0,l1,f,en,na,../audio/070.wav,,l1_f_en_na_070,,,,,,,../image/computer.png,../image/bed.png,computer,lshift,1,computer,bed,computer,bed,None,,,,,,,,,0,23,23,9,,,,,,,,,,,,,22.100049208995188,rshift,0,0.156533916007902,,,,,358659,001,2023-04-05_13h34.20.886,exp_g1,2022.2.5,None,
95.0,l1,f,sp,na,../audio/095.wav,,l1_f_sp_na_095,,,,,,,../image/socks.png,../image/key.png,key,lshift,1,key,socks,socks,key,None,,,,,,,,,0,24,24,34,,,,,,,,,,,,,22.298446499997226,lshift,1,0.116487749008229,,,,,358659,001,2023-04-05_13h34.20.886,exp_g1,2022.2.5,None,
93.0,l1,f,sp,na,../audio/093.wav,,l1_f_sp_na_093,,,,,,,../image/boy.png,../image/book.png,book,lshift,1,book,boy,boy,book,None,,,,,,,,,0,25,25,32,,,,,,,,,,,,,22.456011458998546,rshift,0,0.1255416240019258,,,,,358659,001,2023-04-05_13h34.20.886,exp_g1,2022.2.5,None,
84.0,l1,f,se,na,../audio/084.wav,,l1_f_se_na_084,,,,,,,../image/penthouse.png,../image/rocket.png,penthouse,lshift,1,penthouse,rocket,penthouse,rocket,None,,,,,,,,,0,26,26,23,,,,,,,,,,,,,22.622466833992803,lshift,1,0.12511575000098674,,,,,358659,001,2023-04-05_13h34.20.886,exp_g1,2022.2.5,None,
17.0,l1,t,es,na,../audio/017.wav,,l1_t_es_na_017,,,,,,,../image/jug.png,../image/cat.png,jug,rshift,1,jug,cat,jug,cat,None,,,,,,,,,0,27,27,41,,,,,,,,,,,,,22.785707291994186,rshift,1,0.1276782910063048,,,,,358659,001,2023-04-05_13h34.20.886,exp_g1,2022.2.5,None,
66.0,l1,f,en,na,../audio/066.wav,,l1_f_en_na_066,,,,,,,../image/bag.png,../image/scarf.png,bag,lshift,1,bag,scarf,bag,scarf,None,,,,,,,,,0,28,28,5,,,,,,,,,,,,,22.953911791999417,lshift,1,0.1370612910031923,,,,,358659,001,2023-04-05_13h34.20.886,exp_g1,2022.2.5,None,
71.0,l1,f,en,na,../audio/071.wav,,l1_f_en_na_071,,,,,,,../image/wallet.png,../image/plane.png,plane,rshift,1,plane,wallet,wallet,plane,None,,,,,,,,,0,29,29,10,,,,,,,,,,,,,23.134178833999613,rshift,1,0.1400255830012611,,,,,358659,001,2023-04-05_13h34.20.886,exp_g1,2022.2.5,None,
140.0,l1,t,es,f0u,../audio/140.wav,,l1_t_es_f0u_140,,,,,,,../image/ring.png,../image/bracelet.png,bracelet,rshift,1,bracelet,ring,ring,bracelet,None,,,,,,,,,0,30,30,54,,,,,,,,,,,,,23.315256583999144,lshift,0,0.09130579100019531,,,,,358659,001,2023-04-05_13h34.20.886,exp_g1,2022.2.5,None,
62.0,l1,f,en,na,../audio/062.wav,,l1_f_en_na_062,,,,,,,../image/shoe.png,../image/ring.png,shoe,lshift,1,shoe,ring,shoe,ring,None,,,,,,,,,0,31,31,1,,,,,,,,,,,,,23.44736070899671,rshift,0,0.14415687400469324,,,,,358659,001,2023-04-05_13h34.20.886,exp_g1,2022.2.5,None,
136.0,l1,t,es,f0u,../audio/136.wav,,l1_t_es_f0u_136,,,,,,,../image/city.png,../image/village.png,village,lshift,1,village,city,city,village,None,,,,,,,,,0,32,32,50,,,,,,,,,,,,,23.636764208997192,lshift,1,0.11907070699817268,,,,,358659,001,2023-04-05_13h34.20.886,exp_g1,2022.2.5,None,
76.0,l1,f,se,na,../audio/076.wav,,l1_f_se_na_076,,,,,,,../image/hotdog.png,../image/burger.png,hotdog,lshift,1,hotdog,burger,hotdog,burger,None,,,,,,,,,0,33,33,15,,,,,,,,,,,,,23.80512974999874,rshift,0,0.11034966599981999,,,,,358659,001,2023-04-05_13h34.20.886,exp_g1,2022.2.5,None,
82.0,l1,f,se,na,../audio/082.wav,,l1_f_se_na_082,,,,,,,../image/mickeymouse.png,../image/spongebob.png,mickeymouse,lshift,1,mickeymouse,spongebob,mickeymouse,spongebob,None,,,,,,,,,0,34,34,21,,,,,,,,,,,,,23.951852124999277,lshift,1,0.11809304100461304,,,,,358659,001,2023-04-05_13h34.20.886,exp_g1,2022.2.5,None,
77.0,l1,f,se,na,../audio/077.wav,,l1_f_se_na_077,,,,,,,../image/mashedpotatoes.png,../image/donut.png,donut,rshift,1,donut,mashedpotatoes,mashedpotatoes,donut,None,,,,,,,,,0,35,35,16,,,,,,,,,,,,,24.119352666995837,rshift,1,0.12838429100520443,,,,,358659,001,2023-04-05_13h34.20.886,exp_g1,2022.2.5,None,
15.0,l1,t,es,na,../audio/015.wav,,l1_t_es_na_015,,,,,,,../image/glasses.png,../image/jacket.png,glasses,rshift,1,glasses,jacket,glasses,jacket,None,,,,,,,,,0,36,36,39,,,,,,,,,,,,,24.28682520899747,lshift,0,0.13295820799976354,,,,,358659,001,2023-04-05_13h34.20.886,exp_g1,2022.2.5,None,
19.0,l1,t,es,na,../audio/019.wav,,l1_t_es_na_019,,,,,,,../image/boy.png,../image/dog.png,boy,rshift,1,boy,dog,boy,dog,None,,,,,,,,,0,37,37,43,,,,,,,,,,,,,24.469279041994014,rshift,1,0.1269678750031744,,,,,358659,001,2023-04-05_13h34.20.886,exp_g1,2022.2.5,None,
87.0,l1,f,sp,na,../audio/087.wav,,l1_f_sp_na_087,,,,,,,../image/desk.png,../image/bed.png,bed,rshift,1,bed,desk,desk,bed,None,,,,,,,,,0,38,38,26,,,,,,,,,,,,,24.636524708999787,lshift,0,0.112304000002041,,,,,358659,001,2023-04-05_13h34.20.886,exp_g1,2022.2.5,None,
139.0,l1,t,es,f0u,../audio/139.wav,,l1_t_es_f0u_139,,,,,,,../image/restaurant.png,../image/hotel.png,restaurant,rshift,1,restaurant,hotel,restaurant,hotel,None,,,,,,,,,0,39,39,53,,,,,,,,,,,,,24.790884958994866,rshift,1,0.13089683200087165,,,,,358659,001,2023-04-05_13h34.20.886,exp_g1,2022.2.5,None,
14.0,l1,t,es,na,../audio/014.wav,,l1_t_es_na_014,,,,,,,../image/book.png,../image/key.png,key,lshift,1,key,book,book,key,None,,,,,,,,,0,40,40,38,,,,,,,,,,,,,24.96139708399278,lshift,1,0.14111454100930132,,,,,358659,001,2023-04-05_13h34.20.886,exp_g1,2022.2.5,None,
91.0,l1,f,sp,na,../audio/091.wav,,l1_f_sp_na_091,,,,,,,../image/backpack.png,../image/bracelet.png,bracelet,lshift,1,bracelet,backpack,backpack,bracelet,None,,,,,,,,,0,41,41,30,,,,,,,,,,,,,25.153850624999905,rshift,0,0.12651354100671597,,,,,358659,001,2023-04-05_13h34.20.886,exp_g1,2022.2.5,None,
78.0,l1,f,se,na,../audio/078.wav,,l1_f_se_na_078,,,,,,,../image/airpods.png,../image/joycons.png,airpods,lshift,1,airpods,joycons,airpods,joycons,None,,,,,,,,,0,42,42,17,,,,,,,,,,,,,25.318078291995334,lshift,1,0.12944258299830835,,,,,358659,001,2023-04-05_13h34.20.886,exp_g1,2022.2.5,None,
94.0,l1,f,sp,na,../audio/094.wav,,l1_f_sp_na_094,,,,,,,../image/beer.png,../image/horchata.png,beer,rshift,1,beer,horchata,beer,horchata,None,,,,,,,,,0,43,43,33,,,,,,,,,,,,,25.488792291995196,rshift,1,0.12060216601093998,,,,,358659,001,2023-04-05_13h34.20.886,exp_g1,2022.2.5,None,
65.0,l1,f,en,na,../audio/065.wav,,l1_f_en_na_065,,,,,,,../image/computer.png,../image/book.png,book,rshift,1,book,computer,computer,book,None,,,,,,,,,0,44,44,4,,,,,,,,,,,,,25.649946499994257,lshift,0,0.11754116600059206,,,,,358659,001,2023-04-05_13h34.20.886,exp_g1,2022.2.5,None,
135.0,l1,t,es,f0u,../audio/135.wav,,l1_t_es_f0u_135,,,,,,,../image/flipflops.png,../image/flower.png,flipflops,rshift,1,flipflops,flower,flipflops,flower,None,,,,,,,,,0,45,45,49,,,,,,,,,,,,,25.807341791994986,rshift,1,0.1124587079975754,,,,,358659,001,2023-04-05_13h34.20.886,exp_g1,2022.2.5,None,
61.0,l1,f,en,na,../audio/061.wav,,l1_f_en_na_061,,,,,,,../image/cat.png,../image/dog.png,dog,rshift,1,dog,cat,cat,dog,../image/,,,,,,,,,0,46,46,0,,,,,,,,,,,,,25.964901583996834,lshift,0,0.14174041600927012,,,,,358659,001,2023-04-05_13h34.20.886,exp_g1,2022.2.5,None,
134.0,l1,t,es,f0u,../audio/134.wav,,l1_t_es_f0u_134,,,,,,,../image/basket.png,../image/truck.png,truck,lshift,1,truck,basket,basket,truck,None,,,,,,,,,0,47,47,48,,,,,,,,,,,,,26.1578862499955,rshift,0,0.13626174900127808,,,,,358659,001,2023-04-05_13h34.20.886,exp_g1,2022.2.5,None,
73.0,l1,f,en,na,../audio/073.wav,,l1_f_en_na_073,,,,,,,../image/socks.png,../image/tshirt.png,tshirt,rshift,1,tshirt,socks,socks,tshirt,None,,,,,,,,,0,48,48,12,,,,,,,,,,,,,26.334209958993597,lshift,0,0.13155633200221928,,,,,358659,001,2023-04-05_13h34.20.886,exp_g1,2022.2.5,None,
133.0,l1,t,es,f0u,../audio/133.wav,,l1_t_es_f0u_133,,,,,,,../image/cellphone.png,../image/book.png,cellphone,rshift,1,cellphone,book,cellphone,book,None,,,,,,,,,0,49,49,47,,,,,,,,,,,,,26.50559912499739,rshift,1,0.13396962400292978,,,,,358659,001,2023-04-05_13h34.20.886,exp_g1,2022.2.5,None,
85.0,l1,f,se,na,../audio/085.wav,,l1_f_se_na_085,,,,,,,../image/loafers.png,../image/sneakers.png,sneakers,rshift,1,sneakers,loafers,loafers,sneakers,None,,,,,,,,,0,50,50,24,,,,,,,,,,,,,26.68775995899341,lshift,0,0.11993879100191407,,,,,358659,001,2023-04-05_13h34.20.886,exp_g1,2022.2.5,None,
16.0,l1,t,es,na,../audio/016.wav,,l1_t_es_na_016,,,,,,,../image/flipflops.png,../image/bag.png,bag,lshift,1,bag,flipflops,flipflops,bag,None,,,,,,,,,0,51,51,40,,,,,,,,,,,,,26.849039041997457,rshift,0,0.10002970800269395,,,,,358659,001,2023-04-05_13h34.20.886,exp_g1,2022.2.5,None,
83.0,l1,f,se,na,../audio/083.wav,,l1_f_se_na_083,,,,,,,../image/donut.png,../image/burger.png,burger,rshift,1,burger,donut,donut,burger,None,,,,,,,,,0,52,52,22,,,,,,,,,,,,,26.988386166995042,lshift,0,0.1243570410006214,,,,,358659,001,2023-04-05_13h34.20.886,exp_g1,2022.2.5,None,
20.0,l1,t,es,na,../audio/020.wav,,l1_t_es_na_020,,,,,,,../image/cellphone.png,../image/backpack.png,backpack,lshift,1,backpack,cellphone,cellphone,backpack,None,,,,,,,,,0,53,53,44,,,,,,,,,,,,,27.142561083994224,rshift,0,0.133833665997372,,,,,358659,001,2023-04-05_13h34.20.886,exp_g1,2022.2.5,None,
69.0,l1,f,en,na,../audio/069.wav,,l1_f_en_na_069,,,,,,,../image/bag.png,../image/shirt.png,shirt,rshift,1,shirt,bag,bag,shirt,None,,,,,,,,,0,54,54,8,,,,,,,,,,,,,27.302696291997563,lshift,0,0.15076520700677065,,,,,358659,001,2023-04-05_13h34.20.886,exp_g1,2022.2.5,None,
tr1,lt,tr,en,na,../practice_trial/audio/tr1.wav,Where are your kids?,lt_tr_en_na_tr1,-,-,-,-,-,-,../image/america.png,../image/spain.png,,,,,,,,,,,,,,,,,,,,,0,0,0,0,0,0,0,0,,,,,,,,,29.83676966699568,30.786474541662997,"['rshift', 'rshift']","[-2.2054353339990485, 2.0878951240010792]",358659,001,2023-04-05_13h34.20.886,exp_g1,2022.2.5,None,
tr2,lt,tr,en,na,../practice_trial/audio/tr2.wav,Who is buying my car?,lt_tr_en_na_tr2,-,-,-,-,-,-,../image/america.png,../image/spain.png,,,,,,,,,,,,,,,,,,,,,0,0,0,0,0,1,1,1,,,,,,,,,34.83250241699716,35.79646320866256,"['rshift', 'rshift']","[1.6947891240051831, 2.516913707004278]",358659,001,2023-04-05_13h34.20.886,exp_g1,2022.2.5,None,
,,,,,,,,,,,,,,,,,,,,,,,,,,,,,,,,,,,,,,,,,,,,,,,,,,,,39.82793504199799,40.7966423336659,,,,,,,,,
