num,list,cond,lang,type,sound_dir,phr,sent_code,mat,mat_num,emb_num,emb,cut,mat_f0_c,left,right,correct_img,correct,exp_num,image,image_alt,left_img,right_img,correct_key,image_dir,exp1_retrial.thisRepN,exp1_retrial.thisTrialN,exp1_retrial.thisN,exp1_retrial.thisIndex,exp1_trial_loop.thisRepN,exp1_trial_loop.thisTrialN,exp1_trial_loop.thisN,exp1_trial_loop.thisIndex,exp1_loop.thisRepN,exp1_loop.thisTrialN,exp1_loop.thisN,exp1_loop.thisIndex,exp2_retrial.thisRepN,exp2_retrial.thisTrialN,exp2_retrial.thisN,exp2_retrial.thisIndex,exp2_trial_loop.thisRepN,exp2_trial_loop.thisTrialN,exp2_trial_loop.thisN,exp2_trial_loop.thisIndex,exp1_trial_key.started,exp1_trial_key.keys,exp1_trial_key.rt,exp1_key.started,exp1_key.keys,exp1_key.rt,exp1_sound.started,exp2_trial_key.started,exp2_trial_sound.started,exp2_trial_key.stopped,participant,session,date,expName,psychopyVersion,frameRate,
tr1,lt,tr,en,na,../practice_trial/audio/tr1.wav,Where are your kids?,lt_tr_en_na_tr1,-,-,-,-,-,-,../image/kids.png,../image/plates.png,kids,lshift,,,,,,,,0,0,0,0,0,0,0,0,,,,,,,,,,,,,11.86040179200063,['lshift'],[0.3816250419986318],,,,,,,,584883,001,2023-04-03_13h57.30.334,exp_g1,2022.2.5,None,
tr2,lt,tr,en,na,../practice_trial/audio/tr2.wav,Who is buying my car?,lt_tr_en_na_tr2,-,-,-,-,-,-,../image/bag.png,../image/car.png,car,rshift,,,,,,,,0,0,0,0,0,1,1,1,,,,,,,,,,,,,12.287739458000942,['lshift'],[0.10990366699843435],,,,,,,,584883,001,2023-04-03_13h57.30.334,exp_g1,2022.2.5,None,
tr3,lt,tr,sp,na,../practice_trial/audio/tr3.wav,¿Dónde está mi perro?,lt_tr_sp_na_tr3,-,-,-,-,-,-,../image/dog.png,../image/grandma.png,dog,lshift,,,,,,,,0,0,0,0,0,2,2,2,,,,,,,,,,,,,12.437474833001033,['lshift'],[0.14957908399992448],,,,,,,,584883,001,2023-04-03_13h57.30.334,exp_g1,2022.2.5,None,
tr4,lt,tr,sp,na,../practice_trial/audio/tr4.wav,¿De quién es la bolsa?,lt_tr_sp_na_tr4,-,-,-,-,-,-,../image/shirt.png,../image/bag.png,bag,rshift,,,,,,,,0,0,0,0,0,3,3,3,,,,,,,,,,,,,12.630366583000068,['lshift'],[0.2209290829996462],,,,,,,,584883,001,2023-04-03_13h57.30.334,exp_g1,2022.2.5,None,
tr5,lt,tr,se,na,../practice_trial/audio/tr5.wav,¿Dónde encontraste sus donuts?,lt_tr_se_na_tr5,-,-,-,-,-,-,../image/donut.png,../image/cups.png,donut,lshift,,,,,,,,0,0,0,0,0,4,4,4,,,,,,,,,,,,,12.904645333001099,['lshift'],[0.24185237499841605],,,,,,,,584883,001,2023-04-03_13h57.30.334,exp_g1,2022.2.5,None,
tr6,lt,tr,se,na,../practice_trial/audio/tr6.wav,¿Cuándo compraste tu sweater?,lt_tr_se_na_tr6,-,-,-,-,-,-,../image/chair.png,../image/sweater.png,sweater,rshift,,,,,,,,0,0,0,0,0,5,5,5,,,,,,,,,,,,,13.19093341700136,['lshift'],[0.18332937599916477],,,,,,,,584883,001,2023-04-03_13h57.30.334,exp_g1,2022.2.5,None,
tr7,lt,tr,es,na,../practice_trial/audio/tr7.wav,Why do you have my camisa?,lt_tr_es_na_tr7,-,-,-,-,-,-,../image/shirt.png,../image/wallet.png,shirt,lshift,,,,,,,,0,0,0,0,0,6,6,6,,,,,,,,,,,,,13.421643083000163,['lshift'],[0.20240383300006215],,,,,,,,584883,001,2023-04-03_13h57.30.334,exp_g1,2022.2.5,None,
tr8,lt,tr,es,na,../practice_trial/audio/tr8.wav,Where did you find his chanclas?,lt_tr_es_na_tr8,-,-,-,-,-,-,../image/key.png,../image/flipflops.png,flipflops,rshift,,,,,,,,0,0,0,0,0,7,7,7,,,,,,,,,,,,,13.667537332999927,['lshift'],[0.202938999998878],,,,,,,,584883,001,2023-04-03_13h57.30.334,exp_g1,2022.2.5,None,
,,,,,,,,,,,,,,,,,,,,,,,,,0,0,0,0,,,,,,,,,,,,,,,,,,,,,,,,,,,584883,001,2023-04-03_13h57.30.334,exp_g1,2022.2.5,None,
133.0,l1,t,es,f0u,../audio/133.wav,,l1_t_es_f0u_133,,,,,,,../image/cellphone.png,../image/book.png,cellphone,,1,cellphone,book,cellphone,book,l,None,,,,,,,,,0,0,0,47,,,,,,,,,,,,16.054906125000343,['lshift'],[-1.9330846660013776],,,,,584883,001,2023-04-03_13h57.30.334,exp_g1,2022.2.5,None,
80.0,l1,f,se,na,../audio/080.wav,,l1_f_se_na_080,,,,,,,../image/mouse.png,../image/rat.png,mouse,,1,mouse,rat,mouse,rat,l,None,,,,,,,,,0,1,1,19,,,,,,,,,,,,16.079689916999996,['lshift'],[0.9662987919982697],17.06262054166679,,,,584883,001,2023-04-03_13h57.30.334,exp_g1,2022.2.5,None,
135.0,l1,t,es,f0u,../audio/135.wav,,l1_t_es_f0u_135,,,,,,,../image/flipflops.png,../image/flower.png,flipflops,,1,flipflops,flower,flipflops,flower,l,None,,,,,,,,,0,2,2,49,,,,,,,,,,,,17.087092042000222,['lshift'],[0.20956458399996336],,,,,584883,001,2023-04-03_13h57.30.334,exp_g1,2022.2.5,None,
140.0,l1,t,es,f0u,../audio/140.wav,,l1_t_es_f0u_140,,,,,,,../image/ring.png,../image/bracelet.png,bracelet,,1,bracelet,ring,ring,bracelet,r,None,,,,,,,,,0,3,3,54,,,,,,,,,,,,17.34186850000151,['lshift'],[0.20504374999836728],,,,,584883,001,2023-04-03_13h57.30.334,exp_g1,2022.2.5,None,
63.0,l1,f,en,na,../audio/063.wav,,l1_f_en_na_063,,,,,,,../image/woman.png,../image/man.png,man,,1,man,woman,woman,man,r,None,,,,,,,,,0,4,4,2,,,,,,,,,,,,17.591596208001647,['lshift'],[0.17764720799823408],,,,,584883,001,2023-04-03_13h57.30.334,exp_g1,2022.2.5,None,
136.0,l1,t,es,f0u,../audio/136.wav,,l1_t_es_f0u_136,,,,,,,../image/city.png,../image/village.png,village,,1,village,city,city,village,r,None,,,,,,,,,0,5,5,50,,,,,,,,,,,,17.818472667000606,['lshift'],[0.18699541699788824],,,,,584883,001,2023-04-03_13h57.30.334,exp_g1,2022.2.5,None,
66.0,l1,f,en,na,../audio/066.wav,,l1_f_en_na_066,,,,,,,../image/bag.png,../image/scarf.png,bag,,1,bag,scarf,bag,scarf,l,None,,,,,,,,,0,6,6,5,,,,,,,,,,,,18.052011125000718,['lshift'],[0.1857164590001048],,,,,584883,001,2023-04-03_13h57.30.334,exp_g1,2022.2.5,None,
137.0,l1,t,es,f0u,../audio/137.wav,,l1_t_es_f0u_137,,,,,,,../image/jacket.png,../image/shirt.png,jacket,,1,jacket,shirt,jacket,shirt,l,None,,,,,,,,,0,7,7,51,,,,,,,,,,,,18.284917250000944,['lshift'],[0.18034725099823845],,,,,584883,001,2023-04-03_13h57.30.334,exp_g1,2022.2.5,None,
73.0,l1,f,en,na,../audio/073.wav,,l1_f_en_na_073,,,,,,,../image/socks.png,../image/tshirt.png,tshirt,,1,tshirt,socks,socks,tshirt,r,None,,,,,,,,,0,8,8,12,,,,,,,,,,,,18.511353958001564,['lshift'],[0.19476474999828497],,,,,584883,001,2023-04-03_13h57.30.334,exp_g1,2022.2.5,None,
89.0,l1,f,sp,na,../audio/089.wav,,l1_f_sp_na_089,,,,,,,../image/bed.png,../image/wallet.png,wallet,,1,wallet,bed,bed,wallet,r,None,,,,,,,,,0,9,9,28,,,,,,,,,,,,18.757293042001038,['lshift'],[0.19691087499813875],,,,,584883,001,2023-04-03_13h57.30.334,exp_g1,2022.2.5,None,
95.0,l1,f,sp,na,../audio/095.wav,,l1_f_sp_na_095,,,,,,,../image/socks.png,../image/key.png,key,,1,key,socks,socks,key,r,None,,,,,,,,,0,10,10,34,,,,,,,,,,,,18.99870112500139,['lshift'],[0.19771454199872096],,,,,584883,001,2023-04-03_13h57.30.334,exp_g1,2022.2.5,None,
69.0,l1,f,en,na,../audio/069.wav,,l1_f_en_na_069,,,,,,,../image/bag.png,../image/shirt.png,shirt,,1,shirt,bag,bag,shirt,r,None,,,,,,,,,0,11,11,8,,,,,,,,,,,,19.23684250000042,['lshift'],[0.2117896669988113],,,,,584883,001,2023-04-03_13h57.30.334,exp_g1,2022.2.5,None,
91.0,l1,f,sp,na,../audio/091.wav,,l1_f_sp_na_091,,,,,,,../image/backpack.png,../image/bracelet.png,bracelet,,1,bracelet,backpack,backpack,bracelet,r,None,,,,,,,,,0,12,12,30,,,,,,,,,,,,19.49398950000068,['lshift'],[0.2187428329980321],,,,,584883,001,2023-04-03_13h57.30.334,exp_g1,2022.2.5,None,
139.0,l1,t,es,f0u,../audio/139.wav,,l1_t_es_f0u_139,,,,,,,../image/restaurant.png,../image/hotel.png,restaurant,,1,restaurant,hotel,restaurant,hotel,l,None,,,,,,,,,0,13,13,53,,,,,,,,,,,,19.7576548750003,['lshift'],[0.201277874997686],,,,,584883,001,2023-04-03_13h57.30.334,exp_g1,2022.2.5,None,
87.0,l1,f,sp,na,../audio/087.wav,,l1_f_sp_na_087,,,,,,,../image/desk.png,../image/bed.png,bed,,1,bed,desk,desk,bed,r,None,,,,,,,,,0,14,14,26,,,,,,,,,,,,20.00235870800134,['lshift'],[0.2544591259993467],,,,,584883,001,2023-04-03_13h57.30.334,exp_g1,2022.2.5,None,
82.0,l1,f,se,na,../audio/082.wav,,l1_f_se_na_082,,,,,,,../image/mickeymouse.png,../image/spongebob.png,mickeymouse,,1,mickeymouse,spongebob,mickeymouse,spongebob,l,None,,,,,,,,,0,15,15,21,,,,,,,,,,,,20.30198266700063,['lshift'],[0.2538790419985162],,,,,584883,001,2023-04-03_13h57.30.334,exp_g1,2022.2.5,None,
14.0,l1,t,es,na,../audio/014.wav,,l1_t_es_na_014,,,,,,,../image/book.png,../image/key.png,key,,1,key,book,book,key,r,None,,,,,,,,,0,16,16,38,,,,,,,,,,,,20.603532917000848,['lshift'],[0.27037537499927566],,,,,584883,001,2023-04-03_13h57.30.334,exp_g1,2022.2.5,None,
61.0,l1,f,en,na,../audio/061.wav,,l1_f_en_na_061,,,,,,,../image/cat.png,../image/dog.png,dog,,1,dog,cat,cat,dog,r,../image/,,,,,,,,,0,17,17,0,,,,,,,,,,,,20.92099029200108,['lshift'],[0.3115574169987667],,,,,584883,001,2023-04-03_13h57.30.334,exp_g1,2022.2.5,None,
75.0,l1,f,en,na,../audio/075.wav,,l1_f_en_na_075,,,,,,,../image/dog.png,../image/fish.png,fish,,1,fish,dog,dog,fish,r,None,,,,,,,,,0,18,18,14,,,,,,,,,,,,21.280728375000763,['lshift'],[0.28271595899786917],,,,,584883,001,2023-04-03_13h57.30.334,exp_g1,2022.2.5,None,
77.0,l1,f,se,na,../audio/077.wav,,l1_f_se_na_077,,,,,,,../image/mashedpotatoes.png,../image/donut.png,donut,,1,donut,mashedpotatoes,mashedpotatoes,donut,r,None,,,,,,,,,0,19,19,16,,,,,,,,,,,,21.60851054200066,['lshift'],[0.2155334999988554],,,,,584883,001,2023-04-03_13h57.30.334,exp_g1,2022.2.5,None,
74.0,l1,f,en,na,../audio/074.wav,,l1_f_en_na_074,,,,,,,../image/boy.png,../image/woman.png,boy,,1,boy,woman,boy,woman,l,None,,,,,,,,,0,20,20,13,,,,,,,,,,,,21.87107641700095,['lshift'],[0.27575562499987427],,,,,584883,001,2023-04-03_13h57.30.334,exp_g1,2022.2.5,None,
131.0,l1,t,es,f0u,../audio/131.wav,,l1_t_es_f0u_131,,,,,,,../image/cat.png,../image/flower.png,cat,,1,cat,flower,cat,flower,l,None,,,,,,,,,0,21,21,45,,,,,,,,,,,,22.193152667001414,['lshift'],[0.26366604199756694],,,,,584883,001,2023-04-03_13h57.30.334,exp_g1,2022.2.5,None,
138.0,l1,t,es,f0u,../audio/138.wav,,l1_t_es_f0u_138,,,,,,,../image/pants.png,../image/shirt.png,shirt,,1,shirt,pants,pants,shirt,r,None,,,,,,,,,0,22,22,52,,,,,,,,,,,,22.502804542000376,['lshift'],[0.2550324579988228],,,,,584883,001,2023-04-03_13h57.30.334,exp_g1,2022.2.5,None,
134.0,l1,t,es,f0u,../audio/134.wav,,l1_t_es_f0u_134,,,,,,,../image/basket.png,../image/truck.png,truck,,1,truck,basket,basket,truck,r,None,,,,,,,,,0,23,23,48,,,,,,,,,,,,22.808739957999933,['lshift'],[0.27049329199871863],,,,,584883,001,2023-04-03_13h57.30.334,exp_g1,2022.2.5,None,
88.0,l1,f,sp,na,../audio/088.wav,,l1_f_sp_na_088,,,,,,,../image/book.png,../image/cellphone.png,book,,1,book,cellphone,book,cellphone,l,None,,,,,,,,,0,24,24,27,,,,,,,,,,,,23.120028125000317,['lshift'],[0.2536944589974155],,,,,584883,001,2023-04-03_13h57.30.334,exp_g1,2022.2.5,None,
16.0,l1,t,es,na,../audio/016.wav,,l1_t_es_na_016,,,,,,,../image/flipflops.png,../image/bag.png,bag,,1,bag,flipflops,flipflops,bag,r,None,,,,,,,,,0,25,25,40,,,,,,,,,,,,23.4201418749999,['lshift'],[0.2593332919987006],,,,,584883,001,2023-04-03_13h57.30.334,exp_g1,2022.2.5,None,
83.0,l1,f,se,na,../audio/083.wav,,l1_f_se_na_083,,,,,,,../image/donut.png,../image/burger.png,burger,,1,burger,donut,donut,burger,r,None,,,,,,,,,0,26,26,22,,,,,,,,,,,,23.722866208001506,['lshift'],[0.2585838759987382],,,,,584883,001,2023-04-03_13h57.30.334,exp_g1,2022.2.5,None,
19.0,l1,t,es,na,../audio/019.wav,,l1_t_es_na_019,,,,,,,../image/boy.png,../image/dog.png,boy,,1,boy,dog,boy,dog,l,None,,,,,,,,,0,27,27,43,,,,,,,,,,,,24.031210958000884,['lshift'],[0.26912312599961297],,,,,584883,001,2023-04-03_13h57.30.334,exp_g1,2022.2.5,None,
76.0,l1,f,se,na,../audio/076.wav,,l1_f_se_na_076,,,,,,,../image/hotdog.png,../image/burger.png,hotdog,,1,hotdog,burger,hotdog,burger,l,None,,,,,,,,,0,28,28,15,,,,,,,,,,,,24.346840833000897,['lshift'],[0.27053587499904097],,,,,584883,001,2023-04-03_13h57.30.334,exp_g1,2022.2.5,None,
17.0,l1,t,es,na,../audio/017.wav,,l1_t_es_na_017,,,,,,,../image/jug.png,../image/cat.png,jug,,1,jug,cat,jug,cat,l,None,,,,,,,,,0,29,29,41,,,,,,,,,,,,24.660030083001402,['lshift'],[0.2575618749979185],,,,,584883,001,2023-04-03_13h57.30.334,exp_g1,2022.2.5,None,
71.0,l1,f,en,na,../audio/071.wav,,l1_f_en_na_071,,,,,,,../image/wallet.png,../image/plane.png,plane,,1,plane,wallet,wallet,plane,r,None,,,,,,,,,0,30,30,10,,,,,,,,,,,,24.958767875001286,['lshift'],[0.26459274999979243],,,,,584883,001,2023-04-03_13h57.30.334,exp_g1,2022.2.5,None,
18.0,l1,t,es,na,../audio/018.wav,,l1_t_es_na_018,,,,,,,../image/cups.png,../image/napkins.png,napkins,,1,napkins,cups,cups,napkins,r,None,,,,,,,,,0,31,31,42,,,,,,,,,,,,25.269096542000625,['lshift'],[0.2807905839999876],,,,,584883,001,2023-04-03_13h57.30.334,exp_g1,2022.2.5,None,
94.0,l1,f,sp,na,../audio/094.wav,,l1_f_sp_na_094,,,,,,,../image/beer.png,../image/horchata.png,beer,,1,beer,horchata,beer,horchata,l,None,,,,,,,,,0,32,32,33,,,,,,,,,,,,25.59087499999987,['lshift'],[0.2514936249990569],,,,,584883,001,2023-04-03_13h57.30.334,exp_g1,2022.2.5,None,
15.0,l1,t,es,na,../audio/015.wav,,l1_t_es_na_015,,,,,,,../image/glasses.png,../image/jacket.png,glasses,,1,glasses,jacket,glasses,jacket,l,None,,,,,,,,,0,33,33,39,,,,,,,,,,,,25.882113333000234,['lshift'],[0.260568499999863],,,,,584883,001,2023-04-03_13h57.30.334,exp_g1,2022.2.5,None,
62.0,l1,f,en,na,../audio/062.wav,,l1_f_en_na_062,,,,,,,../image/shoe.png,../image/ring.png,shoe,,1,shoe,ring,shoe,ring,l,None,,,,,,,,,0,34,34,1,,,,,,,,,,,,26.184622000000672,['lshift'],[0.24055570800010173],,,,,584883,001,2023-04-03_13h57.30.334,exp_g1,2022.2.5,None,
13.0,l1,t,es,na,../audio/013.wav,,l1_t_es_na_013,,,,,,,../image/beer.png,../image/wine.png,beer,,1,beer,wine,beer,wine,l,None,,,,,,,,,0,35,35,37,,,,,,,,,,,,26.46818458300004,['lshift'],[0.2524817079993227],,,,,584883,001,2023-04-03_13h57.30.334,exp_g1,2022.2.5,None,
79.0,l1,f,se,na,../audio/079.wav,,l1_f_se_na_079,,,,,,,../image/sweatpants.png,../image/jeans.png,jeans,,1,jeans,sweatpants,sweatpants,jeans,r,None,,,,,,,,,0,36,36,18,,,,,,,,,,,,26.767156167001303,['lshift'],[0.27406054199855134],,,,,584883,001,2023-04-03_13h57.30.334,exp_g1,2022.2.5,None,
64.0,l1,f,en,na,../audio/064.wav,,l1_f_en_na_064,,,,,,,../image/wallet.png,../image/key.png,wallet,,1,wallet,key,wallet,key,l,None,,,,,,,,,0,37,37,3,,,,,,,,,,,,27.087364375000107,['lshift'],[0.2761672499982524],,,,,584883,001,2023-04-03_13h57.30.334,exp_g1,2022.2.5,None,
11.0,l1,t,es,na,../audio/011.wav,,l1_t_es_na_011,,,,,,,../image/armchair.png,../image/bed.png,armchair,,1,armchair,bed,armchair,bed,l,None,,,,,,,,,0,38,38,35,,,,,,,,,,,,27.41727154200089,['lshift'],[0.2787122919999092],,,,,584883,001,2023-04-03_13h57.30.334,exp_g1,2022.2.5,None,
81.0,l1,f,se,na,../audio/081.wav,,l1_f_se_na_081,,,,,,,../image/boxers.png,../image/sweatpants.png,sweatpants,,1,sweatpants,boxers,boxers,sweatpants,r,None,,,,,,,,,0,39,39,20,,,,,,,,,,,,27.737834625000687,['lshift'],[0.28053170899875113],,,,,584883,001,2023-04-03_13h57.30.334,exp_g1,2022.2.5,None,
72.0,l1,f,en,na,../audio/072.wav,,l1_f_en_na_072,,,,,,,../image/dog.png,../image/fish.png,dog,,1,dog,fish,dog,fish,l,None,,,,,,,,,0,40,40,11,,,,,,,,,,,,28.059862625001188,['lshift'],[0.31007058399882226],,,,,584883,001,2023-04-03_13h57.30.334,exp_g1,2022.2.5,None,
67.0,l1,f,en,na,../audio/067.wav,,l1_f_en_na_067,,,,,,,../image/beer.png,../image/glasses.png,glasses,,1,glasses,beer,beer,glasses,r,None,,,,,,,,,0,41,41,6,,,,,,,,,,,,28.412484167000002,['lshift'],[0.31186254199928953],,,,,584883,001,2023-04-03_13h57.30.334,exp_g1,2022.2.5,None,
70.0,l1,f,en,na,../audio/070.wav,,l1_f_en_na_070,,,,,,,../image/computer.png,../image/bed.png,computer,,1,computer,bed,computer,bed,l,None,,,,,,,,,0,42,42,9,,,,,,,,,,,,28.776433667000674,['lshift'],[0.308094957998037],,,,,584883,001,2023-04-03_13h57.30.334,exp_g1,2022.2.5,None,
20.0,l1,t,es,na,../audio/020.wav,,l1_t_es_na_020,,,,,,,../image/cellphone.png,../image/backpack.png,backpack,,1,backpack,cellphone,cellphone,backpack,r,None,,,,,,,,,0,43,43,44,,,,,,,,,,,,29.131956042001548,['lshift'],[0.31723204199988686],,,,,584883,001,2023-04-03_13h57.30.334,exp_g1,2022.2.5,None,
12.0,l1,t,es,na,../audio/012.wav,,l1_t_es_na_012,,,,,,,../image/newspaper.png,../image/book.png,book,,1,book,newspaper,newspaper,book,r,None,,,,,,,,,0,44,44,36,,,,,,,,,,,,29.494682708000255,['lshift'],[0.3293086259982374],,,,,584883,001,2023-04-03_13h57.30.334,exp_g1,2022.2.5,None,
78.0,l1,f,se,na,../audio/078.wav,,l1_f_se_na_078,,,,,,,../image/airpods.png,../image/joycons.png,airpods,,1,airpods,joycons,airpods,joycons,l,None,,,,,,,,,0,45,45,17,,,,,,,,,,,,29.866000208001424,['lshift'],[0.33074770900020667],,,,,584883,001,2023-04-03_13h57.30.334,exp_g1,2022.2.5,None,
68.0,l1,f,en,na,../audio/068.wav,,l1_f_en_na_068,,,,,,,../image/socks.png,../image/book.png,socks,,1,socks,book,socks,book,l,None,,,,,,,,,0,46,46,7,,,,,,,,,,,,30.237259500001528,['lshift'],[0.30889729199770954],,,,,584883,001,2023-04-03_13h57.30.334,exp_g1,2022.2.5,None,
84.0,l1,f,se,na,../audio/084.wav,,l1_f_se_na_084,,,,,,,../image/penthouse.png,../image/rocket.png,penthouse,,1,penthouse,rocket,penthouse,rocket,l,None,,,,,,,,,0,47,47,23,,,,,,,,,,,,30.589975374999995,['lshift'],[0.3062640839998494],,,,,584883,001,2023-04-03_13h57.30.334,exp_g1,2022.2.5,None,
93.0,l1,f,sp,na,../audio/093.wav,,l1_f_sp_na_093,,,,,,,../image/boy.png,../image/book.png,book,,1,book,boy,boy,book,r,None,,,,,,,,,0,48,48,32,,,,,,,,,,,,30.937771792001513,['lshift'],[0.33500816699779534],,,,,584883,001,2023-04-03_13h57.30.334,exp_g1,2022.2.5,None,
85.0,l1,f,se,na,../audio/085.wav,,l1_f_se_na_085,,,,,,,../image/loafers.png,../image/sneakers.png,sneakers,,1,sneakers,loafers,loafers,sneakers,r,None,,,,,,,,,0,49,49,24,,,,,,,,,,,,31.32299595800032,['lshift'],[0.34375783299947216],,,,,584883,001,2023-04-03_13h57.30.334,exp_g1,2022.2.5,None,
132.0,l1,t,es,f0u,../audio/132.wav,,l1_t_es_f0u_132,,,,,,,../image/car.png,../image/grandma.png,grandma,,1,grandma,car,car,grandma,r,None,,,,,,,,,0,50,50,46,,,,,,,,,,,,31.712098208001407,['lshift'],[0.3171400419996644],,,,,584883,001,2023-04-03_13h57.30.334,exp_g1,2022.2.5,None,
65.0,l1,f,en,na,../audio/065.wav,,l1_f_en_na_065,,,,,,,../image/computer.png,../image/book.png,book,,1,book,computer,computer,book,r,None,,,,,,,,,0,51,51,4,,,,,,,,,,,,32.06948908300001,['lshift'],[0.28828383299878624],,,,,584883,001,2023-04-03_13h57.30.334,exp_g1,2022.2.5,None,
90.0,l1,f,sp,na,../audio/090.wav,,l1_f_sp_na_090,,,,,,,../image/bag.png,../image/bottle.png,bag,,1,bag,bottle,bag,bottle,l,None,,,,,,,,,0,52,52,29,,,,,,,,,,,,32.39854720800031,['lshift'],[0.29915962499944726],,,,,584883,001,2023-04-03_13h57.30.334,exp_g1,2022.2.5,None,
86.0,l1,f,sp,na,../audio/086.wav,,l1_f_sp_na_086,,,,,,,../image/plates.png,../image/glasses.png,plates,,1,plates,glasses,plates,glasses,l,None,,,,,,,,,0,53,53,25,,,,,,,,,,,,32.737855875000605,['lshift'],[0.3134684999986348],,,,,584883,001,2023-04-03_13h57.30.334,exp_g1,2022.2.5,None,
92.0,l1,f,sp,na,../audio/092.wav,,l1_f_sp_na_092,,,,,,,../image/armchair.png,../image/dog.png,armchair,,1,armchair,dog,armchair,dog,l,None,,,,,,,,,0,54,54,31,,,,,,,,,,,,33.09495929200057,['lshift'],[0.3249594999997498],,,,,584883,001,2023-04-03_13h57.30.334,exp_g1,2022.2.5,None,
,,,,,,,,,,,,,,,,,,,,,,,,,,,,,,,,,,,,,,,,,,,,,,,,,,,,43.86048800000026,44.81233899966743,48.8504017080013,,,,,,,
