num,list,cond,lang,type,sound_dir,phr,sent_code,mat,mat_num,emb_num,emb,cut,mat_f0_c,left,right,correct_img,correct_key,exp_num,image,image_alt,left_img,right_img,image_dir,exp1_retrial.thisRepN,exp1_retrial.thisTrialN,exp1_retrial.thisN,exp1_retrial.thisIndex,exp1_trial_loop.thisRepN,exp1_trial_loop.thisTrialN,exp1_trial_loop.thisN,exp1_trial_loop.thisIndex,exp1_loop.thisRepN,exp1_loop.thisTrialN,exp1_loop.thisN,exp1_loop.thisIndex,exp2_retrial.thisRepN,exp2_retrial.thisTrialN,exp2_retrial.thisN,exp2_retrial.thisIndex,exp2_trial_loop.thisRepN,exp2_trial_loop.thisTrialN,exp2_trial_loop.thisN,exp2_trial_loop.thisIndex,exp1_trial_key.started,exp1_trial_key.keys,exp1_trial_key.rt,exp1_key.started,exp1_key.keys,exp1_key.corr,exp1_key.rt,exp2_trial_key.started,exp2_trial_sound.started,exp2_trial_key.keys,exp2_trial_key.rt,participant,session,date,expName,psychopyVersion,frameRate,
tr1,lt,tr,en,na,../practice_trial/audio/tr1.wav,Where are your kids?,lt_tr_en_na_tr1,-,-,-,-,-,-,../image/kids.png,../image/plates.png,kids,lshift,,,,,,,0,0,0,0,0,0,0,0,,,,,,,,,,,,,12.686623708003026,['lshift'],[0.42282045900356025],,,,,,,,,624130,001,2023-04-05_13h32.52.361,exp_g1,2022.2.5,None,
tr2,lt,tr,en,na,../practice_trial/audio/tr2.wav,Who is buying my car?,lt_tr_en_na_tr2,-,-,-,-,-,-,../image/bag.png,../image/car.png,car,rshift,,,,,,,0,0,0,0,0,1,1,1,,,,,,,,,,,,,13.156641708003008,['lshift'],[0.22528800000145566],,,,,,,,,624130,001,2023-04-05_13h32.52.361,exp_g1,2022.2.5,None,
tr3,lt,tr,sp,na,../practice_trial/audio/tr3.wav,¿Dónde está mi perro?,lt_tr_sp_na_tr3,-,-,-,-,-,-,../image/dog.png,../image/grandma.png,dog,lshift,,,,,,,0,0,0,0,0,2,2,2,,,,,,,,,,,,,13.436774125002557,['lshift'],[0.10643200000049546],,,,,,,,,624130,001,2023-04-05_13h32.52.361,exp_g1,2022.2.5,None,
tr4,lt,tr,sp,na,../practice_trial/audio/tr4.wav,¿De quién es la bolsa?,lt_tr_sp_na_tr4,-,-,-,-,-,-,../image/shirt.png,../image/bag.png,bag,rshift,,,,,,,0,0,0,0,0,3,3,3,,,,,,,,,,,,,13.572616582998307,['lshift'],[0.24668829100119183],,,,,,,,,624130,001,2023-04-05_13h32.52.361,exp_g1,2022.2.5,None,
tr5,lt,tr,se,na,../practice_trial/audio/tr5.wav,¿Dónde encontraste sus donuts?,lt_tr_se_na_tr5,-,-,-,-,-,-,../image/donut.png,../image/cups.png,donut,lshift,,,,,,,0,0,0,0,0,4,4,4,,,,,,,,,,,,,13.869474083003297,['lshift'],[0.24074724999809405],,,,,,,,,624130,001,2023-04-05_13h32.52.361,exp_g1,2022.2.5,None,
tr6,lt,tr,se,na,../practice_trial/audio/tr6.wav,¿Cuándo compraste tu sweater?,lt_tr_se_na_tr6,-,-,-,-,-,-,../image/chair.png,../image/sweater.png,sweater,rshift,,,,,,,0,0,0,0,0,5,5,5,,,,,,,,,,,,,14.157506415998796,['lshift'],[0.17350629199791],,,,,,,,,624130,001,2023-04-05_13h32.52.361,exp_g1,2022.2.5,None,
tr7,lt,tr,es,na,../practice_trial/audio/tr7.wav,Why do you have my camisa?,lt_tr_es_na_tr7,-,-,-,-,-,-,../image/shirt.png,../image/wallet.png,shirt,lshift,,,,,,,0,0,0,0,0,6,6,6,,,,,,,,,,,,,14.379039166000439,['lshift'],[0.20515562500077067],,,,,,,,,624130,001,2023-04-05_13h32.52.361,exp_g1,2022.2.5,None,
tr8,lt,tr,es,na,../practice_trial/audio/tr8.wav,Where did you find his chanclas?,lt_tr_es_na_tr8,-,-,-,-,-,-,../image/key.png,../image/flipflops.png,flipflops,rshift,,,,,,,0,0,0,0,0,7,7,7,,,,,,,,,,,,,14.63715237499855,['lshift'],[0.18945979200361762],,,,,,,,,624130,001,2023-04-05_13h32.52.361,exp_g1,2022.2.5,None,
,,,,,,,,,,,,,,,,,,,,,,,,0,0,0,0,,,,,,,,,,,,,,,,,,,,,,,,,,,,624130,001,2023-04-05_13h32.52.361,exp_g1,2022.2.5,None,
136.0,l1,t,es,f0u,../audio/136.wav,,l1_t_es_f0u_136,,,,,,,../image/city.png,../image/village.png,village,lshift,1,village,city,city,village,None,,,,,,,,,0,0,0,50,,,,,,,,,,,,16.463451875002647,lshift,1,-1.3703784579993226,,,,,624130,001,2023-04-05_13h32.52.361,exp_g1,2022.2.5,None,
64.0,l1,f,en,na,../audio/064.wav,,l1_f_en_na_064,,,,,,,../image/wallet.png,../image/key.png,wallet,lshift,1,wallet,key,wallet,key,None,,,,,,,,,0,1,1,3,,,,,,,,,,,,16.49968016600178,lshift,1,0.44748625000647735,,,,,624130,001,2023-04-05_13h32.52.361,exp_g1,2022.2.5,None,
12.0,l1,t,es,na,../audio/012.wav,,l1_t_es_na_012,,,,,,,../image/newspaper.png,../image/book.png,book,lshift,1,book,newspaper,newspaper,book,None,,,,,,,,,0,2,2,36,,,,,,,,,,,,16.991522374999477,lshift,1,0.3682417920063017,,,,,624130,001,2023-04-05_13h32.52.361,exp_g1,2022.2.5,None,
134.0,l1,t,es,f0u,../audio/134.wav,,l1_t_es_f0u_134,,,,,,,../image/basket.png,../image/truck.png,truck,lshift,1,truck,basket,basket,truck,None,,,,,,,,,0,3,3,48,,,,,,,,,,,,17.410743541004194,lshift,1,0.29394762499578064,,,,,624130,001,2023-04-05_13h32.52.361,exp_g1,2022.2.5,None,
20.0,l1,t,es,na,../audio/020.wav,,l1_t_es_na_020,,,,,,,../image/cellphone.png,../image/backpack.png,backpack,lshift,1,backpack,cellphone,cellphone,backpack,None,,,,,,,,,0,4,4,44,,,,,,,,,,,,17.753938833004213,lshift,1,0.26536366700020153,,,,,624130,001,2023-04-05_13h32.52.361,exp_g1,2022.2.5,None,
78.0,l1,f,se,na,../audio/078.wav,,l1_f_se_na_078,,,,,,,../image/airpods.png,../image/joycons.png,airpods,lshift,1,airpods,joycons,airpods,joycons,None,,,,,,,,,0,5,5,17,,,,,,,,,,,,18.06413570800214,lshift,1,0.30230712499906076,,,,,624130,001,2023-04-05_13h32.52.361,exp_g1,2022.2.5,None,
139.0,l1,t,es,f0u,../audio/139.wav,,l1_t_es_f0u_139,,,,,,,../image/restaurant.png,../image/hotel.png,restaurant,rshift,1,restaurant,hotel,restaurant,hotel,None,,,,,,,,,0,6,6,53,,,,,,,,,,,,18.421380208004848,lshift,0,0.26896908300113864,,,,,624130,001,2023-04-05_13h32.52.361,exp_g1,2022.2.5,None,
131.0,l1,t,es,f0u,../audio/131.wav,,l1_t_es_f0u_131,,,,,,,../image/cat.png,../image/flower.png,cat,rshift,1,cat,flower,cat,flower,None,,,,,,,,,0,7,7,45,,,,,,,,,,,,18.736083750001853,lshift,0,0.25277729200024623,,,,,624130,001,2023-04-05_13h32.52.361,exp_g1,2022.2.5,None,
66.0,l1,f,en,na,../audio/066.wav,,l1_f_en_na_066,,,,,,,../image/bag.png,../image/scarf.png,bag,lshift,1,bag,scarf,bag,scarf,None,,,,,,,,,0,8,8,5,,,,,,,,,,,,19.036417499999516,lshift,1,0.2838625410076929,,,,,624130,001,2023-04-05_13h32.52.361,exp_g1,2022.2.5,None,
70.0,l1,f,en,na,../audio/070.wav,,l1_f_en_na_070,,,,,,,../image/computer.png,../image/bed.png,computer,lshift,1,computer,bed,computer,bed,None,,,,,,,,,0,9,9,9,,,,,,,,,,,,19.371296375000384,lshift,1,0.24783979200583417,,,,,624130,001,2023-04-05_13h32.52.361,exp_g1,2022.2.5,None,
92.0,l1,f,sp,na,../audio/092.wav,,l1_f_sp_na_092,,,,,,,../image/armchair.png,../image/dog.png,armchair,rshift,1,armchair,dog,armchair,dog,None,,,,,,,,,0,10,10,31,,,,,,,,,,,,19.675204457998916,lshift,0,0.23481587499554735,,,,,624130,001,2023-04-05_13h32.52.361,exp_g1,2022.2.5,None,
135.0,l1,t,es,f0u,../audio/135.wav,,l1_t_es_f0u_135,,,,,,,../image/flipflops.png,../image/flower.png,flipflops,rshift,1,flipflops,flower,flipflops,flower,None,,,,,,,,,0,11,11,49,,,,,,,,,,,,19.958438291003404,lshift,0,0.25518962500063935,,,,,624130,001,2023-04-05_13h32.52.361,exp_g1,2022.2.5,None,
67.0,l1,f,en,na,../audio/067.wav,,l1_f_en_na_067,,,,,,,../image/beer.png,../image/glasses.png,glasses,rshift,1,glasses,beer,beer,glasses,None,,,,,,,,,0,12,12,6,,,,,,,,,,,,20.253411375000724,lshift,0,0.26968179100367706,,,,,624130,001,2023-04-05_13h32.52.361,exp_g1,2022.2.5,None,
71.0,l1,f,en,na,../audio/071.wav,,l1_f_en_na_071,,,,,,,../image/wallet.png,../image/plane.png,plane,rshift,1,plane,wallet,wallet,plane,None,,,,,,,,,0,13,13,10,,,,,,,,,,,,20.567928791002487,lshift,0,0.2806079590009176,,,,,624130,001,2023-04-05_13h32.52.361,exp_g1,2022.2.5,None,
17.0,l1,t,es,na,../audio/017.wav,,l1_t_es_na_017,,,,,,,../image/jug.png,../image/cat.png,jug,rshift,1,jug,cat,jug,cat,None,,,,,,,,,0,14,14,41,,,,,,,,,,,,20.891759250000177,lshift,0,0.2797702079988085,,,,,624130,001,2023-04-05_13h32.52.361,exp_g1,2022.2.5,None,
133.0,l1,t,es,f0u,../audio/133.wav,,l1_t_es_f0u_133,,,,,,,../image/cellphone.png,../image/book.png,cellphone,rshift,1,cellphone,book,cellphone,book,None,,,,,,,,,0,15,15,47,,,,,,,,,,,,21.214337124998565,lshift,0,0.28403699999762466,,,,,624130,001,2023-04-05_13h32.52.361,exp_g1,2022.2.5,None,
82.0,l1,f,se,na,../audio/082.wav,,l1_f_se_na_082,,,,,,,../image/mickeymouse.png,../image/spongebob.png,mickeymouse,lshift,1,mickeymouse,spongebob,mickeymouse,spongebob,None,,,,,,,,,0,16,16,21,,,,,,,,,,,,21.53843649999908,lshift,1,0.2845568330012611,,,,,624130,001,2023-04-05_13h32.52.361,exp_g1,2022.2.5,None,
18.0,l1,t,es,na,../audio/018.wav,,l1_t_es_na_018,,,,,,,../image/cups.png,../image/napkins.png,napkins,lshift,1,napkins,cups,cups,napkins,None,,,,,,,,,0,17,17,42,,,,,,,,,,,,21.86679745800211,lshift,1,0.3007625000027474,,,,,624130,001,2023-04-05_13h32.52.361,exp_g1,2022.2.5,None,
81.0,l1,f,se,na,../audio/081.wav,,l1_f_se_na_081,,,,,,,../image/boxers.png,../image/sweatpants.png,sweatpants,rshift,1,sweatpants,boxers,boxers,sweatpants,None,,,,,,,,,0,18,18,20,,,,,,,,,,,,22.220957875004387,lshift,0,0.2680087919943617,,,,,624130,001,2023-04-05_13h32.52.361,exp_g1,2022.2.5,None,
76.0,l1,f,se,na,../audio/076.wav,,l1_f_se_na_076,,,,,,,../image/hotdog.png,../image/burger.png,hotdog,lshift,1,hotdog,burger,hotdog,burger,None,,,,,,,,,0,19,19,15,,,,,,,,,,,,22.53856720800104,lshift,1,0.29891937500360655,,,,,624130,001,2023-04-05_13h32.52.361,exp_g1,2022.2.5,None,
89.0,l1,f,sp,na,../audio/089.wav,,l1_f_sp_na_089,,,,,,,../image/bed.png,../image/wallet.png,wallet,lshift,1,wallet,bed,bed,wallet,None,,,,,,,,,0,20,20,28,,,,,,,,,,,,22.88716770800238,lshift,1,0.28619041699857917,,,,,624130,001,2023-04-05_13h32.52.361,exp_g1,2022.2.5,None,
11.0,l1,t,es,na,../audio/011.wav,,l1_t_es_na_011,,,,,,,../image/armchair.png,../image/bed.png,armchair,rshift,1,armchair,bed,armchair,bed,None,,,,,,,,,0,21,21,35,,,,,,,,,,,,23.223284332998446,lshift,0,0.2692469580069883,,,,,624130,001,2023-04-05_13h32.52.361,exp_g1,2022.2.5,None,
95.0,l1,f,sp,na,../audio/095.wav,,l1_f_sp_na_095,,,,,,,../image/socks.png,../image/key.png,key,lshift,1,key,socks,socks,key,None,,,,,,,,,0,22,22,34,,,,,,,,,,,,23.5339982910009,lshift,1,0.2631386660068529,,,,,624130,001,2023-04-05_13h32.52.361,exp_g1,2022.2.5,None,
137.0,l1,t,es,f0u,../audio/137.wav,,l1_t_es_f0u_137,,,,,,,../image/jacket.png,../image/shirt.png,jacket,rshift,1,jacket,shirt,jacket,shirt,None,,,,,,,,,0,23,23,51,,,,,,,,,,,,23.836389125004644,lshift,0,0.27583775000675814,,,,,624130,001,2023-04-05_13h32.52.361,exp_g1,2022.2.5,None,
65.0,l1,f,en,na,../audio/065.wav,,l1_f_en_na_065,,,,,,,../image/computer.png,../image/book.png,book,rshift,1,book,computer,computer,book,None,,,,,,,,,0,24,24,4,,,,,,,,,,,,24.154937125000288,lshift,0,0.27218429100321373,,,,,624130,001,2023-04-05_13h32.52.361,exp_g1,2022.2.5,None,
73.0,l1,f,en,na,../audio/073.wav,,l1_f_en_na_073,,,,,,,../image/socks.png,../image/tshirt.png,tshirt,rshift,1,tshirt,socks,socks,tshirt,None,,,,,,,,,0,25,25,12,,,,,,,,,,,,24.47252158300398,lshift,0,0.2824949589994503,,,,,624130,001,2023-04-05_13h32.52.361,exp_g1,2022.2.5,None,
91.0,l1,f,sp,na,../audio/091.wav,,l1_f_sp_na_091,,,,,,,../image/backpack.png,../image/bracelet.png,bracelet,lshift,1,bracelet,backpack,backpack,bracelet,None,,,,,,,,,0,26,26,30,,,,,,,,,,,,24.799081000004662,lshift,1,0.26561025000410154,,,,,624130,001,2023-04-05_13h32.52.361,exp_g1,2022.2.5,None,
13.0,l1,t,es,na,../audio/013.wav,,l1_t_es_na_013,,,,,,,../image/beer.png,../image/wine.png,beer,rshift,1,beer,wine,beer,wine,None,,,,,,,,,0,27,27,37,,,,,,,,,,,,25.105247583000164,lshift,0,0.29251833399757743,,,,,624130,001,2023-04-05_13h32.52.361,exp_g1,2022.2.5,None,
19.0,l1,t,es,na,../audio/019.wav,,l1_t_es_na_019,,,,,,,../image/boy.png,../image/dog.png,boy,rshift,1,boy,dog,boy,dog,None,,,,,,,,,0,28,28,43,,,,,,,,,,,,25.434882916000788,lshift,0,0.27125900000100955,,,,,624130,001,2023-04-05_13h32.52.361,exp_g1,2022.2.5,None,
68.0,l1,f,en,na,../audio/068.wav,,l1_f_en_na_068,,,,,,,../image/socks.png,../image/book.png,socks,lshift,1,socks,book,socks,book,None,,,,,,,,,0,29,29,7,,,,,,,,,,,,25.747693958001037,lshift,1,0.2524159160020645,,,,,624130,001,2023-04-05_13h32.52.361,exp_g1,2022.2.5,None,
77.0,l1,f,se,na,../audio/077.wav,,l1_f_se_na_077,,,,,,,../image/mashedpotatoes.png,../image/donut.png,donut,rshift,1,donut,mashedpotatoes,mashedpotatoes,donut,None,,,,,,,,,0,30,30,16,,,,,,,,,,,,26.051096291004797,lshift,0,0.23267829100223025,,,,,624130,001,2023-04-05_13h32.52.361,exp_g1,2022.2.5,None,
15.0,l1,t,es,na,../audio/015.wav,,l1_t_es_na_015,,,,,,,../image/glasses.png,../image/jacket.png,glasses,rshift,1,glasses,jacket,glasses,jacket,None,,,,,,,,,0,31,31,39,,,,,,,,,,,,26.33250599999883,lshift,0,0.2061377909994917,,,,,624130,001,2023-04-05_13h32.52.361,exp_g1,2022.2.5,None,
80.0,l1,f,se,na,../audio/080.wav,,l1_f_se_na_080,,,,,,,../image/mouse.png,../image/rat.png,mouse,lshift,1,mouse,rat,mouse,rat,None,,,,,,,,,0,32,32,19,,,,,,,,,,,,26.583890041001723,lshift,1,0.2350320420009666,,,,,624130,001,2023-04-05_13h32.52.361,exp_g1,2022.2.5,None,
88.0,l1,f,sp,na,../audio/088.wav,,l1_f_sp_na_088,,,,,,,../image/book.png,../image/cellphone.png,book,rshift,1,book,cellphone,book,cellphone,None,,,,,,,,,0,33,33,27,,,,,,,,,,,,26.860649750000448,lshift,0,0.20571429199480917,,,,,624130,001,2023-04-05_13h32.52.361,exp_g1,2022.2.5,None,
69.0,l1,f,en,na,../audio/069.wav,,l1_f_en_na_069,,,,,,,../image/bag.png,../image/shirt.png,shirt,rshift,1,shirt,bag,bag,shirt,None,,,,,,,,,0,34,34,8,,,,,,,,,,,,27.11109166600363,lshift,0,0.20503137500054436,,,,,624130,001,2023-04-05_13h32.52.361,exp_g1,2022.2.5,None,
93.0,l1,f,sp,na,../audio/093.wav,,l1_f_sp_na_093,,,,,,,../image/boy.png,../image/book.png,book,lshift,1,book,boy,boy,book,None,,,,,,,,,0,35,35,32,,,,,,,,,,,,27.365022333004163,lshift,1,0.19509183400077745,,,,,624130,001,2023-04-05_13h32.52.361,exp_g1,2022.2.5,None,
132.0,l1,t,es,f0u,../audio/132.wav,,l1_t_es_f0u_132,,,,,,,../image/car.png,../image/grandma.png,grandma,lshift,1,grandma,car,car,grandma,None,,,,,,,,,0,36,36,46,,,,,,,,,,,,27.607667875003244,lshift,1,0.20168849999754457,,,,,624130,001,2023-04-05_13h32.52.361,exp_g1,2022.2.5,None,
140.0,l1,t,es,f0u,../audio/140.wav,,l1_t_es_f0u_140,,,,,,,../image/ring.png,../image/bracelet.png,bracelet,rshift,1,bracelet,ring,ring,bracelet,None,,,,,,,,,0,37,37,54,,,,,,,,,,,,27.848869541005115,rshift,1,0.1876118750005844,,,,,624130,001,2023-04-05_13h32.52.361,exp_g1,2022.2.5,None,
74.0,l1,f,en,na,../audio/074.wav,,l1_f_en_na_074,,,,,,,../image/boy.png,../image/woman.png,boy,lshift,1,boy,woman,boy,woman,None,,,,,,,,,0,38,38,13,,,,,,,,,,,,28.085429291000764,lshift,1,0.13579370800289325,,,,,624130,001,2023-04-05_13h32.52.361,exp_g1,2022.2.5,None,
16.0,l1,t,es,na,../audio/016.wav,,l1_t_es_na_016,,,,,,,../image/flipflops.png,../image/bag.png,bag,lshift,1,bag,flipflops,flipflops,bag,None,,,,,,,,,0,39,39,40,,,,,,,,,,,,28.26336900000024,rshift,0,0.17352504200243857,,,,,624130,001,2023-04-05_13h32.52.361,exp_g1,2022.2.5,None,
87.0,l1,f,sp,na,../audio/087.wav,,l1_f_sp_na_087,,,,,,,../image/desk.png,../image/bed.png,bed,rshift,1,bed,desk,desk,bed,None,,,,,,,,,0,40,40,26,,,,,,,,,,,,28.48526712500461,lshift,0,0.14128416599851334,,,,,624130,001,2023-04-05_13h32.52.361,exp_g1,2022.2.5,None,
75.0,l1,f,en,na,../audio/075.wav,,l1_f_en_na_075,,,,,,,../image/dog.png,../image/fish.png,fish,rshift,1,fish,dog,dog,fish,None,,,,,,,,,0,41,41,14,,,,,,,,,,,,28.668259500002023,rshift,1,0.18527929100673646,,,,,624130,001,2023-04-05_13h32.52.361,exp_g1,2022.2.5,None,
61.0,l1,f,en,na,../audio/061.wav,,l1_f_en_na_061,,,,,,,../image/cat.png,../image/dog.png,dog,rshift,1,dog,cat,cat,dog,../image/,,,,,,,,,0,42,42,0,,,,,,,,,,,,28.899718125001527,lshift,0,0.13236387499637203,,,,,624130,001,2023-04-05_13h32.52.361,exp_g1,2022.2.5,None,
63.0,l1,f,en,na,../audio/063.wav,,l1_f_en_na_063,,,,,,,../image/woman.png,../image/man.png,man,rshift,1,man,woman,woman,man,None,,,,,,,,,0,43,43,2,,,,,,,,,,,,29.080525500001386,rshift,1,0.16197816700150725,,,,,624130,001,2023-04-05_13h32.52.361,exp_g1,2022.2.5,None,
90.0,l1,f,sp,na,../audio/090.wav,,l1_f_sp_na_090,,,,,,,../image/bag.png,../image/bottle.png,bag,rshift,1,bag,bottle,bag,bottle,None,,,,,,,,,0,44,44,29,,,,,,,,,,,,29.279088791001413,lshift,0,0.14763470900652464,,,,,624130,001,2023-04-05_13h32.52.361,exp_g1,2022.2.5,None,
62.0,l1,f,en,na,../audio/062.wav,,l1_f_en_na_062,,,,,,,../image/shoe.png,../image/ring.png,shoe,lshift,1,shoe,ring,shoe,ring,None,,,,,,,,,0,45,45,1,,,,,,,,,,,,29.47207720800361,rshift,0,0.1718568750002305,,,,,624130,001,2023-04-05_13h32.52.361,exp_g1,2022.2.5,None,
84.0,l1,f,se,na,../audio/084.wav,,l1_f_se_na_084,,,,,,,../image/penthouse.png,../image/rocket.png,penthouse,lshift,1,penthouse,rocket,penthouse,rocket,None,,,,,,,,,0,46,46,23,,,,,,,,,,,,29.69290845800424,lshift,1,0.12382350000552833,,,,,624130,001,2023-04-05_13h32.52.361,exp_g1,2022.2.5,None,
85.0,l1,f,se,na,../audio/085.wav,,l1_f_se_na_085,,,,,,,../image/loafers.png,../image/sneakers.png,sneakers,rshift,1,sneakers,loafers,loafers,sneakers,None,,,,,,,,,0,47,47,24,,,,,,,,,,,,29.866441541002132,rshift,1,0.14895508300105575,,,,,624130,001,2023-04-05_13h32.52.361,exp_g1,2022.2.5,None,
138.0,l1,t,es,f0u,../audio/138.wav,,l1_t_es_f0u_138,,,,,,,../image/pants.png,../image/shirt.png,shirt,lshift,1,shirt,pants,pants,shirt,None,,,,,,,,,0,48,48,52,,,,,,,,,,,,30.06357987500087,lshift,1,0.13985483400028897,,,,,624130,001,2023-04-05_13h32.52.361,exp_g1,2022.2.5,None,
79.0,l1,f,se,na,../audio/079.wav,,l1_f_se_na_079,,,,,,,../image/sweatpants.png,../image/jeans.png,jeans,rshift,1,jeans,sweatpants,sweatpants,jeans,None,,,,,,,,,0,49,49,18,,,,,,,,,,,,30.24681429100019,rshift,1,0.15761725000629667,,,,,624130,001,2023-04-05_13h32.52.361,exp_g1,2022.2.5,None,
14.0,l1,t,es,na,../audio/014.wav,,l1_t_es_na_014,,,,,,,../image/book.png,../image/key.png,key,lshift,1,key,book,book,key,None,,,,,,,,,0,50,50,38,,,,,,,,,,,,30.447448708000593,lshift,1,0.12507879099575803,,,,,624130,001,2023-04-05_13h32.52.361,exp_g1,2022.2.5,None,
94.0,l1,f,sp,na,../audio/094.wav,,l1_f_sp_na_094,,,,,,,../image/beer.png,../image/horchata.png,beer,rshift,1,beer,horchata,beer,horchata,None,,,,,,,,,0,51,51,33,,,,,,,,,,,,30.614602541005297,rshift,1,0.16151795799669344,,,,,624130,001,2023-04-05_13h32.52.361,exp_g1,2022.2.5,None,
86.0,l1,f,sp,na,../audio/086.wav,,l1_f_sp_na_086,,,,,,,../image/plates.png,../image/glasses.png,plates,lshift,1,plates,glasses,plates,glasses,None,,,,,,,,,0,52,52,25,,,,,,,,,,,,30.812646833001054,lshift,1,0.1341808330034837,,,,,624130,001,2023-04-05_13h32.52.361,exp_g1,2022.2.5,None,
83.0,l1,f,se,na,../audio/083.wav,,l1_f_se_na_083,,,,,,,../image/donut.png,../image/burger.png,burger,rshift,1,burger,donut,donut,burger,None,,,,,,,,,0,53,53,22,,,,,,,,,,,,30.990710750003927,rshift,1,0.13527349999640137,,,,,624130,001,2023-04-05_13h32.52.361,exp_g1,2022.2.5,None,
72.0,l1,f,en,na,../audio/072.wav,,l1_f_en_na_072,,,,,,,../image/dog.png,../image/fish.png,dog,lshift,1,dog,fish,dog,fish,None,,,,,,,,,0,54,54,11,,,,,,,,,,,,31.167399666002893,lshift,1,0.1534819169974071,,,,,624130,001,2023-04-05_13h32.52.361,exp_g1,2022.2.5,None,
tr1,lt,tr,en,na,../practice_trial/audio/tr1.wav,Where are your kids?,lt_tr_en_na_tr1,-,-,-,-,-,-,../image/america.png,../image/spain.png,,,,,,,,,,,,,,,,,,,,,0,0,0,0,0,0,0,0,,,,,,,,34.224833416003094,35.18095529167137,"['rshift', 'lshift', 'rshift', 'lshift']","[-2.706576167001913, 0.37763066600018647, 0.7013906659994973, 4.256341665997752]",624130,001,2023-04-05_13h32.52.361,exp_g1,2022.2.5,None,
tr2,lt,tr,en,na,../practice_trial/audio/tr2.wav,Who is buying my car?,lt_tr_en_na_tr2,-,-,-,-,-,-,../image/america.png,../image/spain.png,,,,,,,,,,,,,,,,,,,,,0,0,0,0,0,1,1,1,,,,,,,,39.21547370800545,40.17579870766737,"['rshift', 'lshift', 'rshift', 'lshift', 'rshift', 'lshift', 'rshift']","[0.03983512500417419, 0.783846459002234, 1.5825785000051837, 2.340755334000278, 3.1448866670034477, 3.915572208999947, 4.681561375000456]",624130,001,2023-04-05_13h32.52.361,exp_g1,2022.2.5,None,
tr3,lt,tr,sp,na,../practice_trial/audio/tr3.wav,¿Dónde está mi perro?,lt_tr_sp_na_tr3,-,-,-,-,-,-,../image/america.png,../image/spain.png,,,,,,,,,,,,,,,,,,,,,0,0,0,0,0,2,2,2,,,,,,,,44.21765904100175,45.17576604166631,"['lshift', 'rshift', 'lshift', 'rshift', 'lshift', 'rshift', 'lshift']","[0.41997566699865274, 1.1609803750034189, 1.9360397920027026, 2.703517458998249, 3.4428609590031556, 4.187106417004543, 4.9081020840021665]",624130,001,2023-04-05_13h32.52.361,exp_g1,2022.2.5,None,
tr4,lt,tr,sp,na,../practice_trial/audio/tr4.wav,¿De quién es la bolsa?,lt_tr_sp_na_tr4,-,-,-,-,-,-,../image/america.png,../image/spain.png,,,,,,,,,,,,,,,,,,,,,0,0,0,0,0,3,3,3,,,,,,,,49.21713691599871,50.175845082671245,"['rshift', 'lshift', 'rshift', 'lshift', 'rshift', 'lshift']","[0.6422955000016373, 1.3975914160037064, 2.1258315410013893, 2.876181333005661, 3.651204500005406, 4.393000916003075]",624130,001,2023-04-05_13h32.52.361,exp_g1,2022.2.5,None,
tr5,lt,tr,se,na,../practice_trial/audio/tr5.wav,¿Dónde encontraste sus donuts?,lt_tr_se_na_tr5,-,-,-,-,-,-,../image/america.png,../image/spain.png,,,,,,,,,,,,,,,,,,,,,0,0,0,0,0,4,4,4,,,,,,,,54.21452766600123,55.17564108266767,"['rshift', 'lshift', 'rshift', 'lshift', 'rshift', 'lshift', 'rshift']","[0.22851612500380725, 0.9853558750037337, 1.7343643749991315, 2.510888832999626, 3.304139040999871, 4.0513238749990705, 4.811577250002301]",624130,001,2023-04-05_13h32.52.361,exp_g1,2022.2.5,None,
tr6,lt,tr,se,na,../practice_trial/audio/tr6.wav,¿Cuándo compraste tu sweater?,lt_tr_se_na_tr6,-,-,-,-,-,-,../image/america.png,../image/spain.png,,,,,,,,,,,,,,,,,,,,,0,0,0,0,0,5,5,5,,,,,,,,59.21486770800402,60.181536207670675,"['lshift', 'rshift', 'lshift', 'rshift', 'lshift', 'rshift']","[0.5567439169972204, 1.3360429169988493, 2.0955849590027356, 2.866362000000663, 3.5916588339969167, 4.3176430000021355]",624130,001,2023-04-05_13h32.52.361,exp_g1,2022.2.5,None,
,,,,,,,,,,,,,,,,,,,,,,,,,,,,,,,,,,,,,,,,,,,,,,,,,,,64.21235866600182,65.18206924966604,,,,,,,,,
