num,list,cond,lang,type,sound_dir,phr,sent_code,mat,mat_num,emb_num,emb,cut,mat_f0_c,left,right,correct_img,correct_key,exp_num,image,image_alt,left_img,right_img,image_dir,exp1_retrial.thisRepN,exp1_retrial.thisTrialN,exp1_retrial.thisN,exp1_retrial.thisIndex,exp1_trial_loop.thisRepN,exp1_trial_loop.thisTrialN,exp1_trial_loop.thisN,exp1_trial_loop.thisIndex,exp1_loop.thisRepN,exp1_loop.thisTrialN,exp1_loop.thisN,exp1_loop.thisIndex,exp2_retrial.thisRepN,exp2_retrial.thisTrialN,exp2_retrial.thisN,exp2_retrial.thisIndex,exp2_trial_loop.thisRepN,exp2_trial_loop.thisTrialN,exp2_trial_loop.thisN,exp2_trial_loop.thisIndex,exp1_trial_key.started,exp1_trial_key.keys,exp1_trial_key.rt,exp1_key.started,exp1_key.keys,exp1_key.corr,exp1_key.rt,exp2_trial_key.started,exp2_trial_sound.started,exp2_trial_key.stopped,participant,session,date,expName,psychopyVersion,frameRate,
tr1,lt,tr,en,na,../practice_trial/audio/tr1.wav,Where are your kids?,lt_tr_en_na_tr1,-,-,-,-,-,-,../image/kids.png,../image/plates.png,kids,lshift,,,,,,,0,0,0,0,0,0,0,0,,,,,,,,,,,,,11.577631957996346,['lshift'],[0.5156815010050195],,,,,,,,965154,001,2023-04-04_19h21.58.866,exp_g1,2022.2.5,None,
tr2,lt,tr,en,na,../practice_trial/audio/tr2.wav,Who is buying my car?,lt_tr_en_na_tr2,-,-,-,-,-,-,../image/bag.png,../image/car.png,car,rshift,,,,,,,0,0,0,0,0,1,1,1,,,,,,,,,,,,,12.14590104099625,['lshift'],[0.29150091700284975],,,,,,,,965154,001,2023-04-04_19h21.58.866,exp_g1,2022.2.5,None,
tr3,lt,tr,sp,na,../practice_trial/audio/tr3.wav,¿Dónde está mi perro?,lt_tr_sp_na_tr3,-,-,-,-,-,-,../image/dog.png,../image/grandma.png,dog,lshift,,,,,,,0,0,0,0,0,2,2,2,,,,,,,,,,,,,12.484753625001758,['lshift'],[0.3562717500026338],,,,,,,,965154,001,2023-04-04_19h21.58.866,exp_g1,2022.2.5,None,
tr4,lt,tr,sp,na,../practice_trial/audio/tr4.wav,¿De quién es la bolsa?,lt_tr_sp_na_tr4,-,-,-,-,-,-,../image/shirt.png,../image/bag.png,bag,rshift,,,,,,,0,0,0,0,0,3,3,3,,,,,,,,,,,,,12.880840625002747,['lshift'],[0.3278535830031615],,,,,,,,965154,001,2023-04-04_19h21.58.866,exp_g1,2022.2.5,None,
tr5,lt,tr,se,na,../practice_trial/audio/tr5.wav,¿Dónde encontraste sus donuts?,lt_tr_se_na_tr5,-,-,-,-,-,-,../image/donut.png,../image/cups.png,donut,lshift,,,,,,,0,0,0,0,0,4,4,4,,,,,,,,,,,,,13.253680415997223,['lshift'],[0.31865675099834334],,,,,,,,965154,001,2023-04-04_19h21.58.866,exp_g1,2022.2.5,None,
tr6,lt,tr,se,na,../practice_trial/audio/tr6.wav,¿Cuándo compraste tu sweater?,lt_tr_se_na_tr6,-,-,-,-,-,-,../image/chair.png,../image/sweater.png,sweater,rshift,,,,,,,0,0,0,0,0,5,5,5,,,,,,,,,,,,,13.616179208001995,['lshift'],[0.34880837500531925],,,,,,,,965154,001,2023-04-04_19h21.58.866,exp_g1,2022.2.5,None,
tr7,lt,tr,es,na,../practice_trial/audio/tr7.wav,Why do you have my camisa?,lt_tr_es_na_tr7,-,-,-,-,-,-,../image/shirt.png,../image/wallet.png,shirt,lshift,,,,,,,0,0,0,0,0,6,6,6,,,,,,,,,,,,,14.009553875002894,['lshift'],[0.3675600420028786],,,,,,,,965154,001,2023-04-04_19h21.58.866,exp_g1,2022.2.5,None,
tr8,lt,tr,es,na,../practice_trial/audio/tr8.wav,Where did you find his chanclas?,lt_tr_es_na_tr8,-,-,-,-,-,-,../image/key.png,../image/flipflops.png,flipflops,rshift,,,,,,,0,0,0,0,0,7,7,7,,,,,,,,,,,,,14.428071665999596,['lshift'],[0.325797124998644],,,,,,,,965154,001,2023-04-04_19h21.58.866,exp_g1,2022.2.5,None,
,,,,,,,,,,,,,,,,,,,,,,,,0,0,0,0,,,,,,,,,,,,,,,,,,,,,,,,,,,965154,001,2023-04-04_19h21.58.866,exp_g1,2022.2.5,None,
85.0,l1,f,se,na,../audio/085.wav,,l1_f_se_na_085,,,,,,,../image/loafers.png,../image/sneakers.png,sneakers,rshift,1,sneakers,loafers,loafers,sneakers,None,,,,,,,,,0,0,0,24,,,,,,,,,,,,16.480338957997446,lshift,0,0.3773752510023769,,,,965154,001,2023-04-04_19h21.58.866,exp_g1,2022.2.5,None,
16.0,l1,t,es,na,../audio/016.wav,,l1_t_es_na_016,,,,,,,../image/flipflops.png,../image/bag.png,bag,lshift,1,bag,flipflops,flipflops,bag,None,,,,,,,,,0,1,1,40,,,,,,,,,,,,16.901736291001725,lshift,1,0.29260091700416524,,,,965154,001,2023-04-04_19h21.58.866,exp_g1,2022.2.5,None,
137.0,l1,t,es,f0u,../audio/137.wav,,l1_t_es_f0u_137,,,,,,,../image/jacket.png,../image/shirt.png,jacket,rshift,1,jacket,shirt,jacket,shirt,None,,,,,,,,,0,2,2,51,,,,,,,,,,,,17.244315582996933,lshift,0,0.26404066701070406,,,,965154,001,2023-04-04_19h21.58.866,exp_g1,2022.2.5,None,
64.0,l1,f,en,na,../audio/064.wav,,l1_f_en_na_064,,,,,,,../image/wallet.png,../image/key.png,wallet,lshift,1,wallet,key,wallet,key,None,,,,,,,,,0,3,3,3,,,,,,,,,,,,17.550931040997966,lshift,1,0.3352831670054002,,,,965154,001,2023-04-04_19h21.58.866,exp_g1,2022.2.5,None,
70.0,l1,f,en,na,../audio/070.wav,,l1_f_en_na_070,,,,,,,../image/computer.png,../image/bed.png,computer,lshift,1,computer,bed,computer,bed,None,,,,,,,,,0,4,4,9,,,,,,,,,,,,17.929953749997367,lshift,1,0.33534562600107165,,,,965154,001,2023-04-04_19h21.58.866,exp_g1,2022.2.5,None,
86.0,l1,f,sp,na,../audio/086.wav,,l1_f_sp_na_086,,,,,,,../image/plates.png,../image/glasses.png,plates,lshift,1,plates,glasses,plates,glasses,None,,,,,,,,,0,5,5,25,,,,,,,,,,,,18.306941499999084,lshift,1,0.3129946250046487,,,,965154,001,2023-04-04_19h21.58.866,exp_g1,2022.2.5,None,
136.0,l1,t,es,f0u,../audio/136.wav,,l1_t_es_f0u_136,,,,,,,../image/city.png,../image/village.png,village,lshift,1,village,city,city,village,None,,,,,,,,,0,6,6,50,,,,,,,,,,,,18.66876058300113,lshift,1,0.3061359170023934,,,,965154,001,2023-04-04_19h21.58.866,exp_g1,2022.2.5,None,
94.0,l1,f,sp,na,../audio/094.wav,,l1_f_sp_na_094,,,,,,,../image/beer.png,../image/horchata.png,beer,rshift,1,beer,horchata,beer,horchata,None,,,,,,,,,0,7,7,33,,,,,,,,,,,,19.016674790997058,lshift,0,0.30533812600333476,,,,965154,001,2023-04-04_19h21.58.866,exp_g1,2022.2.5,None,
12.0,l1,t,es,na,../audio/012.wav,,l1_t_es_na_012,,,,,,,../image/newspaper.png,../image/book.png,book,lshift,1,book,newspaper,newspaper,book,None,,,,,,,,,0,8,8,36,,,,,,,,,,,,19.368515333000687,lshift,1,0.23753458400460659,,,,965154,001,2023-04-04_19h21.58.866,exp_g1,2022.2.5,None,
61.0,l1,f,en,na,../audio/061.wav,,l1_f_en_na_061,,,,,,,../image/cat.png,../image/dog.png,dog,rshift,1,dog,cat,cat,dog,../image/,,,,,,,,,0,9,9,0,,,,,,,,,,,,19.6498922499959,lshift,0,0.31219312499888474,,,,965154,001,2023-04-04_19h21.58.866,exp_g1,2022.2.5,None,
89.0,l1,f,sp,na,../audio/089.wav,,l1_f_sp_na_089,,,,,,,../image/bed.png,../image/wallet.png,wallet,lshift,1,wallet,bed,bed,wallet,None,,,,,,,,,0,10,10,28,,,,,,,,,,,,20.01735033300065,rshift,0,0.2760713330062572,,,,965154,001,2023-04-04_19h21.58.866,exp_g1,2022.2.5,None,
90.0,l1,f,sp,na,../audio/090.wav,,l1_f_sp_na_090,,,,,,,../image/bag.png,../image/bottle.png,bag,rshift,1,bag,bottle,bag,bottle,None,,,,,,,,,0,11,11,29,,,,,,,,,,,,20.339758540998446,lshift,0,0.2571649170058663,,,,965154,001,2023-04-04_19h21.58.866,exp_g1,2022.2.5,None,
95.0,l1,f,sp,na,../audio/095.wav,,l1_f_sp_na_095,,,,,,,../image/socks.png,../image/key.png,key,lshift,1,key,socks,socks,key,None,,,,,,,,,0,12,12,34,,,,,,,,,,,,20.6407751250008,rshift,0,0.3056188330083387,,,,965154,001,2023-04-04_19h21.58.866,exp_g1,2022.2.5,None,
67.0,l1,f,en,na,../audio/067.wav,,l1_f_en_na_067,,,,,,,../image/beer.png,../image/glasses.png,glasses,rshift,1,glasses,beer,beer,glasses,None,,,,,,,,,0,13,13,6,,,,,,,,,,,,20.989226457997574,lshift,0,0.2519210840036976,,,,965154,001,2023-04-04_19h21.58.866,exp_g1,2022.2.5,None,
20.0,l1,t,es,na,../audio/020.wav,,l1_t_es_na_020,,,,,,,../image/cellphone.png,../image/backpack.png,backpack,lshift,1,backpack,cellphone,cellphone,backpack,None,,,,,,,,,0,14,14,44,,,,,,,,,,,,21.28659399999742,rshift,0,0.2883531670013326,,,,965154,001,2023-04-04_19h21.58.866,exp_g1,2022.2.5,None,
80.0,l1,f,se,na,../audio/080.wav,,l1_f_se_na_080,,,,,,,../image/mouse.png,../image/rat.png,mouse,lshift,1,mouse,rat,mouse,rat,None,,,,,,,,,0,15,15,19,,,,,,,,,,,,21.617536874997313,lshift,1,0.24681170799885876,,,,965154,001,2023-04-04_19h21.58.866,exp_g1,2022.2.5,None,
17.0,l1,t,es,na,../audio/017.wav,,l1_t_es_na_017,,,,,,,../image/jug.png,../image/cat.png,jug,rshift,1,jug,cat,jug,cat,None,,,,,,,,,0,16,16,41,,,,,,,,,,,,21.90806658299698,rshift,1,0.2887941260050866,,,,965154,001,2023-04-04_19h21.58.866,exp_g1,2022.2.5,None,
91.0,l1,f,sp,na,../audio/091.wav,,l1_f_sp_na_091,,,,,,,../image/backpack.png,../image/bracelet.png,bracelet,lshift,1,bracelet,backpack,backpack,bracelet,None,,,,,,,,,0,17,17,30,,,,,,,,,,,,22.247951040997577,lshift,1,0.23823350000020582,,,,965154,001,2023-04-04_19h21.58.866,exp_g1,2022.2.5,None,
74.0,l1,f,en,na,../audio/074.wav,,l1_f_en_na_074,,,,,,,../image/boy.png,../image/woman.png,boy,lshift,1,boy,woman,boy,woman,None,,,,,,,,,0,18,18,13,,,,,,,,,,,,22.52756791599677,rshift,0,0.26880795900069643,,,,965154,001,2023-04-04_19h21.58.866,exp_g1,2022.2.5,None,
63.0,l1,f,en,na,../audio/063.wav,,l1_f_en_na_063,,,,,,,../image/woman.png,../image/man.png,man,rshift,1,man,woman,woman,man,None,,,,,,,,,0,19,19,2,,,,,,,,,,,,22.845050290998188,lshift,0,0.2522276259987848,,,,965154,001,2023-04-04_19h21.58.866,exp_g1,2022.2.5,None,
69.0,l1,f,en,na,../audio/069.wav,,l1_f_en_na_069,,,,,,,../image/bag.png,../image/shirt.png,shirt,rshift,1,shirt,bag,bag,shirt,None,,,,,,,,,0,20,20,8,,,,,,,,,,,,23.13825304099737,rshift,1,0.3036456670015468,,,,965154,001,2023-04-04_19h21.58.866,exp_g1,2022.2.5,None,
73.0,l1,f,en,na,../audio/073.wav,,l1_f_en_na_073,,,,,,,../image/socks.png,../image/tshirt.png,tshirt,rshift,1,tshirt,socks,socks,tshirt,None,,,,,,,,,0,21,21,12,,,,,,,,,,,,23.482761291001225,lshift,0,0.20587066699954448,,,,965154,001,2023-04-04_19h21.58.866,exp_g1,2022.2.5,None,
138.0,l1,t,es,f0u,../audio/138.wav,,l1_t_es_f0u_138,,,,,,,../image/pants.png,../image/shirt.png,shirt,lshift,1,shirt,pants,pants,shirt,None,,,,,,,,,0,22,22,52,,,,,,,,,,,,23.732975790997443,rshift,0,0.25347316700208467,,,,965154,001,2023-04-04_19h21.58.866,exp_g1,2022.2.5,None,
65.0,l1,f,en,na,../audio/065.wav,,l1_f_en_na_065,,,,,,,../image/computer.png,../image/book.png,book,rshift,1,book,computer,computer,book,None,,,,,,,,,0,23,23,4,,,,,,,,,,,,24.02700124999683,lshift,0,0.2171617510030046,,,,965154,001,2023-04-04_19h21.58.866,exp_g1,2022.2.5,None,
79.0,l1,f,se,na,../audio/079.wav,,l1_f_se_na_079,,,,,,,../image/sweatpants.png,../image/jeans.png,jeans,rshift,1,jeans,sweatpants,sweatpants,jeans,None,,,,,,,,,0,24,24,18,,,,,,,,,,,,24.29142466600024,rshift,1,0.2057776260044193,,,,965154,001,2023-04-04_19h21.58.866,exp_g1,2022.2.5,None,
66.0,l1,f,en,na,../audio/066.wav,,l1_f_en_na_066,,,,,,,../image/bag.png,../image/scarf.png,bag,lshift,1,bag,scarf,bag,scarf,None,,,,,,,,,0,25,25,5,,,,,,,,,,,,24.542656124998757,lshift,1,0.2188390840019565,,,,965154,001,2023-04-04_19h21.58.866,exp_g1,2022.2.5,None,
139.0,l1,t,es,f0u,../audio/139.wav,,l1_t_es_f0u_139,,,,,,,../image/restaurant.png,../image/hotel.png,restaurant,rshift,1,restaurant,hotel,restaurant,hotel,None,,,,,,,,,0,26,26,53,,,,,,,,,,,,24.81646341599844,rshift,1,0.19386429199948907,,,,965154,001,2023-04-04_19h21.58.866,exp_g1,2022.2.5,None,
14.0,l1,t,es,na,../audio/014.wav,,l1_t_es_na_014,,,,,,,../image/book.png,../image/key.png,key,lshift,1,key,book,book,key,None,,,,,,,,,0,27,27,38,,,,,,,,,,,,25.057855250001012,lshift,1,0.22371816700615454,,,,965154,001,2023-04-04_19h21.58.866,exp_g1,2022.2.5,None,
72.0,l1,f,en,na,../audio/072.wav,,l1_f_en_na_072,,,,,,,../image/dog.png,../image/fish.png,dog,lshift,1,dog,fish,dog,fish,None,,,,,,,,,0,28,28,11,,,,,,,,,,,,25.325624040997354,rshift,0,0.22298595800384646,,,,965154,001,2023-04-04_19h21.58.866,exp_g1,2022.2.5,None,
78.0,l1,f,se,na,../audio/078.wav,,l1_f_se_na_078,,,,,,,../image/airpods.png,../image/joycons.png,airpods,lshift,1,airpods,joycons,airpods,joycons,None,,,,,,,,,0,29,29,17,,,,,,,,,,,,25.58756112500123,lshift,1,0.22660025100776693,,,,965154,001,2023-04-04_19h21.58.866,exp_g1,2022.2.5,None,
19.0,l1,t,es,na,../audio/019.wav,,l1_t_es_na_019,,,,,,,../image/boy.png,../image/dog.png,boy,rshift,1,boy,dog,boy,dog,None,,,,,,,,,0,30,30,43,,,,,,,,,,,,25.8632571249982,rshift,1,0.21765841700835153,,,,965154,001,2023-04-04_19h21.58.866,exp_g1,2022.2.5,None,
92.0,l1,f,sp,na,../audio/092.wav,,l1_f_sp_na_092,,,,,,,../image/armchair.png,../image/dog.png,armchair,rshift,1,armchair,dog,armchair,dog,None,,,,,,,,,0,31,31,31,,,,,,,,,,,,26.127512207996915,lshift,0,0.24237870900833514,,,,965154,001,2023-04-04_19h21.58.866,exp_g1,2022.2.5,None,
75.0,l1,f,en,na,../audio/075.wav,,l1_f_en_na_075,,,,,,,../image/dog.png,../image/fish.png,fish,rshift,1,fish,dog,dog,fish,None,,,,,,,,,0,32,32,14,,,,,,,,,,,,26.414588583000295,rshift,1,0.22453687500819797,,,,965154,001,2023-04-04_19h21.58.866,exp_g1,2022.2.5,None,
132.0,l1,t,es,f0u,../audio/132.wav,,l1_t_es_f0u_132,,,,,,,../image/car.png,../image/grandma.png,grandma,lshift,1,grandma,car,car,grandma,None,,,,,,,,,0,33,33,46,,,,,,,,,,,,26.684436666000693,lshift,1,0.1726372090051882,,,,965154,001,2023-04-04_19h21.58.866,exp_g1,2022.2.5,None,
140.0,l1,t,es,f0u,../audio/140.wav,,l1_t_es_f0u_140,,,,,,,../image/ring.png,../image/bracelet.png,bracelet,rshift,1,bracelet,ring,ring,bracelet,None,,,,,,,,,0,34,34,54,,,,,,,,,,,,26.89762745799817,rshift,1,0.2076013760015485,,,,965154,001,2023-04-04_19h21.58.866,exp_g1,2022.2.5,None,
15.0,l1,t,es,na,../audio/015.wav,,l1_t_es_na_015,,,,,,,../image/glasses.png,../image/jacket.png,glasses,rshift,1,glasses,jacket,glasses,jacket,None,,,,,,,,,0,35,35,39,,,,,,,,,,,,27.147700875000737,lshift,0,0.22547495899925707,,,,965154,001,2023-04-04_19h21.58.866,exp_g1,2022.2.5,None,
131.0,l1,t,es,f0u,../audio/131.wav,,l1_t_es_f0u_131,,,,,,,../image/cat.png,../image/flower.png,cat,rshift,1,cat,flower,cat,flower,None,,,,,,,,,0,36,36,45,,,,,,,,,,,,27.4184750409986,rshift,1,0.24287862500204938,,,,965154,001,2023-04-04_19h21.58.866,exp_g1,2022.2.5,None,
71.0,l1,f,en,na,../audio/071.wav,,l1_f_en_na_071,,,,,,,../image/wallet.png,../image/plane.png,plane,rshift,1,plane,wallet,wallet,plane,None,,,,,,,,,0,37,37,10,,,,,,,,,,,,27.710247625000193,lshift,0,0.22171400100341998,,,,965154,001,2023-04-04_19h21.58.866,exp_g1,2022.2.5,None,
62.0,l1,f,en,na,../audio/062.wav,,l1_f_en_na_062,,,,,,,../image/shoe.png,../image/ring.png,shoe,lshift,1,shoe,ring,shoe,ring,None,,,,,,,,,0,38,38,1,,,,,,,,,,,,27.975114916000166,rshift,0,0.22734783300984418,,,,965154,001,2023-04-04_19h21.58.866,exp_g1,2022.2.5,None,
11.0,l1,t,es,na,../audio/011.wav,,l1_t_es_na_011,,,,,,,../image/armchair.png,../image/bed.png,armchair,rshift,1,armchair,bed,armchair,bed,None,,,,,,,,,0,39,39,35,,,,,,,,,,,,28.251721041000565,lshift,0,0.22927704200264998,,,,965154,001,2023-04-04_19h21.58.866,exp_g1,2022.2.5,None,
84.0,l1,f,se,na,../audio/084.wav,,l1_f_se_na_084,,,,,,,../image/penthouse.png,../image/rocket.png,penthouse,lshift,1,penthouse,rocket,penthouse,rocket,None,,,,,,,,,0,40,40,23,,,,,,,,,,,,28.52849162500206,rshift,0,0.2253715420010849,,,,965154,001,2023-04-04_19h21.58.866,exp_g1,2022.2.5,None,
135.0,l1,t,es,f0u,../audio/135.wav,,l1_t_es_f0u_135,,,,,,,../image/flipflops.png,../image/flower.png,flipflops,rshift,1,flipflops,flower,flipflops,flower,None,,,,,,,,,0,41,41,49,,,,,,,,,,,,28.79956241599575,lshift,0,0.24262279200047487,,,,965154,001,2023-04-04_19h21.58.866,exp_g1,2022.2.5,None,
76.0,l1,f,se,na,../audio/076.wav,,l1_f_se_na_076,,,,,,,../image/hotdog.png,../image/burger.png,hotdog,lshift,1,hotdog,burger,hotdog,burger,None,,,,,,,,,0,42,42,15,,,,,,,,,,,,29.086326500000723,rshift,0,0.2114831250073621,,,,965154,001,2023-04-04_19h21.58.866,exp_g1,2022.2.5,None,
93.0,l1,f,sp,na,../audio/093.wav,,l1_f_sp_na_093,,,,,,,../image/boy.png,../image/book.png,book,lshift,1,book,boy,boy,book,None,,,,,,,,,0,43,43,32,,,,,,,,,,,,29.34248870799638,lshift,1,0.2294674590084469,,,,965154,001,2023-04-04_19h21.58.866,exp_g1,2022.2.5,None,
88.0,l1,f,sp,na,../audio/088.wav,,l1_f_sp_na_088,,,,,,,../image/book.png,../image/cellphone.png,book,rshift,1,book,cellphone,book,cellphone,None,,,,,,,,,0,44,44,27,,,,,,,,,,,,29.617103707998467,rshift,1,0.21191816700593336,,,,965154,001,2023-04-04_19h21.58.866,exp_g1,2022.2.5,None,
68.0,l1,f,en,na,../audio/068.wav,,l1_f_en_na_068,,,,,,,../image/socks.png,../image/book.png,socks,lshift,1,socks,book,socks,book,None,,,,,,,,,0,45,45,7,,,,,,,,,,,,29.8749888750026,lshift,1,0.23871870900620706,,,,965154,001,2023-04-04_19h21.58.866,exp_g1,2022.2.5,None,
133.0,l1,t,es,f0u,../audio/133.wav,,l1_t_es_f0u_133,,,,,,,../image/cellphone.png,../image/book.png,cellphone,rshift,1,cellphone,book,cellphone,book,None,,,,,,,,,0,46,46,47,,,,,,,,,,,,30.157286790999933,rshift,1,0.302553417001036,,,,965154,001,2023-04-04_19h21.58.866,exp_g1,2022.2.5,None,
77.0,l1,f,se,na,../audio/077.wav,,l1_f_se_na_077,,,,,,,../image/mashedpotatoes.png,../image/donut.png,donut,rshift,1,donut,mashedpotatoes,mashedpotatoes,donut,None,,,,,,,,,0,47,47,16,,,,,,,,,,,,30.507529499998782,lshift,0,0.2953076670091832,,,,965154,001,2023-04-04_19h21.58.866,exp_g1,2022.2.5,None,
18.0,l1,t,es,na,../audio/018.wav,,l1_t_es_na_018,,,,,,,../image/cups.png,../image/napkins.png,napkins,lshift,1,napkins,cups,cups,napkins,None,,,,,,,,,0,48,48,42,,,,,,,,,,,,30.844823624996934,rshift,0,0.2436500010007876,,,,965154,001,2023-04-04_19h21.58.866,exp_g1,2022.2.5,None,
83.0,l1,f,se,na,../audio/083.wav,,l1_f_se_na_083,,,,,,,../image/donut.png,../image/burger.png,burger,rshift,1,burger,donut,donut,burger,None,,,,,,,,,0,49,49,22,,,,,,,,,,,,31.13406062500144,lshift,0,0.2188647920047515,,,,965154,001,2023-04-04_19h21.58.866,exp_g1,2022.2.5,None,
82.0,l1,f,se,na,../audio/082.wav,,l1_f_se_na_082,,,,,,,../image/mickeymouse.png,../image/spongebob.png,mickeymouse,lshift,1,mickeymouse,spongebob,mickeymouse,spongebob,None,,,,,,,,,0,50,50,21,,,,,,,,,,,,31.393065582997224,rshift,0,0.28107487500528805,,,,965154,001,2023-04-04_19h21.58.866,exp_g1,2022.2.5,None,
13.0,l1,t,es,na,../audio/013.wav,,l1_t_es_na_013,,,,,,,../image/beer.png,../image/wine.png,beer,rshift,1,beer,wine,beer,wine,None,,,,,,,,,0,51,51,37,,,,,,,,,,,,31.716550541001197,lshift,0,0.2538622500069323,,,,965154,001,2023-04-04_19h21.58.866,exp_g1,2022.2.5,None,
134.0,l1,t,es,f0u,../audio/134.wav,,l1_t_es_f0u_134,,,,,,,../image/basket.png,../image/truck.png,truck,lshift,1,truck,basket,basket,truck,None,,,,,,,,,0,52,52,48,,,,,,,,,,,,32.01903391599626,rshift,0,0.2665792920088279,,,,965154,001,2023-04-04_19h21.58.866,exp_g1,2022.2.5,None,
81.0,l1,f,se,na,../audio/081.wav,,l1_f_se_na_081,,,,,,,../image/boxers.png,../image/sweatpants.png,sweatpants,rshift,1,sweatpants,boxers,boxers,sweatpants,None,,,,,,,,,0,53,53,20,,,,,,,,,,,,32.331638208001095,lshift,0,0.22935562600468984,,,,965154,001,2023-04-04_19h21.58.866,exp_g1,2022.2.5,None,
87.0,l1,f,sp,na,../audio/087.wav,,l1_f_sp_na_087,,,,,,,../image/desk.png,../image/bed.png,bed,rshift,1,bed,desk,desk,bed,None,,,,,,,,,0,54,54,26,,,,,,,,,,,,32.613204041001154,rshift,1,0.24083075000089593,,,,965154,001,2023-04-04_19h21.58.866,exp_g1,2022.2.5,None,
,,,,,,,,,,,,,,,,,,,,,,,,,,,,,,,,,,,,,,,,,,,,,,,,,,,240.45870375000231,241.3849494166682,245.45559529100137,,,,,,,
