num,list,cond,lang,type,sound_dir,phr,sent_code,mat,mat_num,emb_num,emb,cut,mat_f0_c,left,right,correct_img,correct_key,exp_num,image,image_alt,left_img,right_img,image_dir,exp1_retrial.thisRepN,exp1_retrial.thisTrialN,exp1_retrial.thisN,exp1_retrial.thisIndex,exp1_trial_loop.thisRepN,exp1_trial_loop.thisTrialN,exp1_trial_loop.thisN,exp1_trial_loop.thisIndex,exp1_loop.thisRepN,exp1_loop.thisTrialN,exp1_loop.thisN,exp1_loop.thisIndex,exp2_retrial.thisRepN,exp2_retrial.thisTrialN,exp2_retrial.thisN,exp2_retrial.thisIndex,exp2_trial_loop.thisRepN,exp2_trial_loop.thisTrialN,exp2_trial_loop.thisN,exp2_trial_loop.thisIndex,exp1_trial_key.started,exp1_trial_sound.started,exp1_trial_key.keys,exp1_trial_key.rt,exp1_key.started,exp1_key.keys,exp1_key.corr,exp1_key.rt,exp1_sound.started,exp2_trial_key.started,exp2_trial_sound.started,exp2_trial_key.keys,exp2_trial_key.rt,participant,session,date,expName,psychopyVersion,frameRate,
tr1,lt,tr,en,na,../practice_trial/audio/tr1.wav,Where are your kids?,lt_tr_en_na_tr1,-,-,-,-,-,-,../image/kids.png,../image/plates.png,kids,lshift,,,,,,,0,0,0,0,0,0,0,0,,,,,,,,,,,,,159.3577687080251,160.2192616409273,['lshift'],[2.4687004170846194],,,,,,,,,,RAP,001,2023-04-26_12h25.52.192,exp_g1,2022.2.5,122.42636816676976,
tr2,lt,tr,en,na,../practice_trial/audio/tr2.wav,Who is buying my car?,lt_tr_en_na_tr2,-,-,-,-,-,-,../image/bag.png,../image/car.png,car,rshift,,,,,,,0,0,0,0,0,1,1,1,,,,,,,,,,,,,161.8575275830226,162.835846600018,['rshift'],[2.4849540010327473],,,,,,,,,,RAP,001,2023-04-26_12h25.52.192,exp_g1,2022.2.5,122.42636816676976,
tr3,lt,tr,sp,na,../practice_trial/audio/tr3.wav,¿Dónde está mi perro?,lt_tr_sp_na_tr3,-,-,-,-,-,-,../image/dog.png,../image/grandma.png,dog,lshift,,,,,,,0,0,0,0,0,2,2,2,,,,,,,,,,,,,164.37624391599093,165.3521785580204,None,,,,,,,,,,,RAP,001,2023-04-26_12h25.52.192,exp_g1,2022.2.5,122.42636816676976,
tr4,lt,tr,sp,na,../practice_trial/audio/tr4.wav,¿De quién es la bolsa?,lt_tr_sp_na_tr4,-,-,-,-,-,-,../image/shirt.png,../image/bag.png,bag,rshift,,,,,,,0,0,0,0,0,3,3,3,,,,,,,,,,,,,169.37142420792952,170.3523844329291,['rshift'],[3.793119709007442],,,,,,,,,,RAP,001,2023-04-26_12h25.52.192,exp_g1,2022.2.5,122.42636816676976,
tr5,lt,tr,se,na,../practice_trial/audio/tr5.wav,¿Dónde encontraste sus donuts?,lt_tr_se_na_tr5,-,-,-,-,-,-,../image/donut.png,../image/cups.png,donut,lshift,,,,,,,0,0,0,0,0,4,4,4,,,,,,,,,,,,,173.19784924993291,174.17154364091112,['lshift'],[3.2041027080267668],,,,,,,,,,RAP,001,2023-04-26_12h25.52.192,exp_g1,2022.2.5,122.42636816676976,
tr6,lt,tr,se,na,../practice_trial/audio/tr6.wav,¿Cuándo compraste tu sweater?,lt_tr_se_na_tr6,-,-,-,-,-,-,../image/chair.png,../image/sweater.png,sweater,rshift,,,,,,,0,0,0,0,0,5,5,5,,,,,,,,,,,,,176.4352278750157,177.41071955790977,['rshift'],[2.9884492501150817],,,,,,,,,,RAP,001,2023-04-26_12h25.52.192,exp_g1,2022.2.5,122.42636816676976,
tr7,lt,tr,es,na,../practice_trial/audio/tr7.wav,Why do you have my camisa?,lt_tr_es_na_tr7,-,-,-,-,-,-,../image/shirt.png,../image/wallet.png,shirt,lshift,,,,,,,0,0,0,0,0,6,6,6,,,,,,,,,,,,,179.4560346249491,180.43915639097105,['lshift'],[2.9984762499807402],,,,,,,,,,RAP,001,2023-04-26_12h25.52.192,exp_g1,2022.2.5,122.42636816676976,
tr8,lt,tr,es,na,../practice_trial/audio/tr8.wav,Where did you find his chanclas?,lt_tr_es_na_tr8,-,-,-,-,-,-,../image/key.png,../image/flipflops.png,flipflops,rshift,,,,,,,0,0,0,0,0,7,7,7,,,,,,,,,,,,,182.48938904097304,183.46869939101163,['rshift'],[2.659893501084298],,,,,,,,,,RAP,001,2023-04-26_12h25.52.192,exp_g1,2022.2.5,122.42636816676976,
,,,,,,,,,,,,,,,,,,,,,,,,0,0,0,0,,,,,,,,,,,,,,,,,,,,,,,,,,,,,,RAP,001,2023-04-26_12h25.52.192,exp_g1,2022.2.5,122.42636816676976,
tr1,lt,tr,en,na,../practice_trial/audio/tr1.wav,Where are your kids?,lt_tr_en_na_tr1,-,-,-,-,-,-,../image/kids.png,../image/plates.png,kids,lshift,,,,,,,1,0,1,0,0,0,0,0,,,,,,,,,,,,,252.60115349991247,253.55154664093862,['lshift'],[3.152919334010221],,,,,,,,,,RAP,001,2023-04-26_12h25.52.192,exp_g1,2022.2.5,122.42636816676976,
tr2,lt,tr,en,na,../practice_trial/audio/tr2.wav,Who is buying my car?,lt_tr_en_na_tr2,-,-,-,-,-,-,../image/bag.png,../image/car.png,car,rshift,,,,,,,1,0,1,0,0,1,1,1,,,,,,,,,,,,,255.78970399999525,256.7683664329932,['rshift'],[4.118303208029829],,,,,,,,,,RAP,001,2023-04-26_12h25.52.192,exp_g1,2022.2.5,122.42636816676976,
tr3,lt,tr,sp,na,../practice_trial/audio/tr3.wav,¿Dónde está mi perro?,lt_tr_sp_na_tr3,-,-,-,-,-,-,../image/dog.png,../image/grandma.png,dog,lshift,,,,,,,1,0,1,0,0,2,2,2,,,,,,,,,,,,,259.93975129094906,260.91810926598265,['lshift'],[2.341029708040878],,,,,,,,,,RAP,001,2023-04-26_12h25.52.192,exp_g1,2022.2.5,122.42636816676976,
tr4,lt,tr,sp,na,../practice_trial/audio/tr4.wav,¿De quién es la bolsa?,lt_tr_sp_na_tr4,-,-,-,-,-,-,../image/shirt.png,../image/bag.png,bag,rshift,,,,,,,1,0,1,0,0,3,3,3,,,,,,,,,,,,,262.3090816249605,263.29097959994107,['rshift'],[2.7383533329702914],,,,,,,,,,RAP,001,2023-04-26_12h25.52.192,exp_g1,2022.2.5,122.42636816676976,
tr5,lt,tr,se,na,../practice_trial/audio/tr5.wav,¿Dónde encontraste sus donuts?,lt_tr_se_na_tr5,-,-,-,-,-,-,../image/donut.png,../image/cups.png,donut,lshift,,,,,,,1,0,1,0,0,4,4,4,,,,,,,,,,,,,265.07863929099403,266.0513435999281,['lshift'],[2.8194523330312222],,,,,,,,,,RAP,001,2023-04-26_12h25.52.192,exp_g1,2022.2.5,122.42636816676976,
tr6,lt,tr,se,na,../practice_trial/audio/tr6.wav,¿Cuándo compraste tu sweater?,lt_tr_se_na_tr6,-,-,-,-,-,-,../image/chair.png,../image/sweater.png,sweater,rshift,,,,,,,1,0,1,0,0,5,5,5,,,,,,,,,,,,,267.92935229092836,268.9090523909661,['rshift'],[2.8680895421421155],,,,,,,,,,RAP,001,2023-04-26_12h25.52.192,exp_g1,2022.2.5,122.42636816676976,
tr7,lt,tr,es,na,../practice_trial/audio/tr7.wav,Why do you have my camisa?,lt_tr_es_na_tr7,-,-,-,-,-,-,../image/shirt.png,../image/wallet.png,shirt,lshift,,,,,,,1,0,1,0,0,6,6,6,,,,,,,,,,,,,270.82811958296224,271.8032604749431,['lshift'],[2.6236156249651685],,,,,,,,,,RAP,001,2023-04-26_12h25.52.192,exp_g1,2022.2.5,122.42636816676976,
tr8,lt,tr,es,na,../practice_trial/audio/tr8.wav,Where did you find his chanclas?,lt_tr_es_na_tr8,-,-,-,-,-,-,../image/key.png,../image/flipflops.png,flipflops,rshift,,,,,,,1,0,1,0,0,7,7,7,,,,,,,,,,,,,273.4869845829671,,['rshift'],[0.7127897080499679],,,,,,,,,,RAP,001,2023-04-26_12h25.52.192,exp_g1,2022.2.5,122.42636816676976,
,,,,,,,,,,,,,,,,,,,,,,,,1,0,1,0,,,,,,,,,,,,,,,,,,,,,,,,,,,,,,RAP,001,2023-04-26_12h25.52.192,exp_g1,2022.2.5,122.42636816676976,
tr1,lt,tr,en,na,../practice_trial/audio/tr1.wav,Where are your kids?,lt_tr_en_na_tr1,-,-,-,-,-,-,../image/kids.png,../image/plates.png,kids,lshift,,,,,,,2,0,2,0,0,0,0,0,,,,,,,,,,,,,426.5409718749579,,['rshift'],[0.2754402920836583],,,,,,,,,,RAP,001,2023-04-26_12h25.52.192,exp_g1,2022.2.5,122.42636816676976,
tr2,lt,tr,en,na,../practice_trial/audio/tr2.wav,Who is buying my car?,lt_tr_en_na_tr2,-,-,-,-,-,-,../image/bag.png,../image/car.png,car,rshift,,,,,,,2,0,2,0,0,1,1,1,,,,,,,,,,,,,426.845710207941,,['lshift'],[0.05290804209653288],,,,,,,,,,RAP,001,2023-04-26_12h25.52.192,exp_g1,2022.2.5,122.42636816676976,
tr3,lt,tr,sp,na,../practice_trial/audio/tr3.wav,¿Dónde está mi perro?,lt_tr_sp_na_tr3,-,-,-,-,-,-,../image/dog.png,../image/grandma.png,dog,lshift,,,,,,,2,0,2,0,0,2,2,2,,,,,,,,,,,,,426.9291201250162,,['rshift'],[0.06661712506320328],,,,,,,,,,RAP,001,2023-04-26_12h25.52.192,exp_g1,2022.2.5,122.42636816676976,
tr4,lt,tr,sp,na,../practice_trial/audio/tr4.wav,¿De quién es la bolsa?,lt_tr_sp_na_tr4,-,-,-,-,-,-,../image/shirt.png,../image/bag.png,bag,rshift,,,,,,,2,0,2,0,0,3,3,3,,,,,,,,,,,,,427.02404099993873,,['lshift'],[0.07238641707226634],,,,,,,,,,RAP,001,2023-04-26_12h25.52.192,exp_g1,2022.2.5,122.42636816676976,
tr5,lt,tr,se,na,../practice_trial/audio/tr5.wav,¿Dónde encontraste sus donuts?,lt_tr_se_na_tr5,-,-,-,-,-,-,../image/donut.png,../image/cups.png,donut,lshift,,,,,,,2,0,2,0,0,4,4,4,,,,,,,,,,,,,427.12842124991585,,['rshift'],[0.019128500018268824],,,,,,,,,,RAP,001,2023-04-26_12h25.52.192,exp_g1,2022.2.5,122.42636816676976,
tr6,lt,tr,se,na,../practice_trial/audio/tr6.wav,¿Cuándo compraste tu sweater?,lt_tr_se_na_tr6,-,-,-,-,-,-,../image/chair.png,../image/sweater.png,sweater,rshift,,,,,,,2,0,2,0,0,5,5,5,,,,,,,,,,,,,427.1777070829412,,['lshift'],[0.09593833412509412],,,,,,,,,,RAP,001,2023-04-26_12h25.52.192,exp_g1,2022.2.5,122.42636816676976,
tr7,lt,tr,es,na,../practice_trial/audio/tr7.wav,Why do you have my camisa?,lt_tr_es_na_tr7,-,-,-,-,-,-,../image/shirt.png,../image/wallet.png,shirt,lshift,,,,,,,2,0,2,0,0,6,6,6,,,,,,,,,,,,,427.3050118749961,,['rshift'],[0.0412164170993492],,,,,,,,,,RAP,001,2023-04-26_12h25.52.192,exp_g1,2022.2.5,122.42636816676976,
tr8,lt,tr,es,na,../practice_trial/audio/tr8.wav,Where did you find his chanclas?,lt_tr_es_na_tr8,-,-,-,-,-,-,../image/key.png,../image/flipflops.png,flipflops,rshift,,,,,,,2,0,2,0,0,7,7,7,,,,,,,,,,,,,427.377595540951,,['lshift'],[0.09034212515689433],,,,,,,,,,RAP,001,2023-04-26_12h25.52.192,exp_g1,2022.2.5,122.42636816676976,
,,,,,,,,,,,,,,,,,,,,,,,,2,0,2,0,,,,,,,,,,,,,,,,,,,,,,,,,,,,,,RAP,001,2023-04-26_12h25.52.192,exp_g1,2022.2.5,122.42636816676976,
86.0,l1,f,sp,na,../audio/086.wav,,l1_f_sp_na_086,,,,,,,../image/plates.png,../image/glasses.png,plates,lshift,1,plates,glasses,plates,glasses,None,,,,,,,,,0,0,0,25,,,,,,,,,,,,,646.6298418749357,lshift,1,-44.984962623915635,,,,,,RAP,001,2023-04-26_12h25.52.192,exp_g1,2022.2.5,122.42636816676976,
91.0,l1,f,sp,na,../audio/091.wav,,l1_f_sp_na_091,,,,,,,../image/backpack.png,../image/bracelet.png,bracelet,rshift,1,bracelet,backpack,backpack,bracelet,None,,,,,,,,,0,1,1,30,,,,,,,,,,,,,646.6610594579251,rshift,1,2.574636416975409,647.6314849750022,,,,,RAP,001,2023-04-26_12h25.52.192,exp_g1,2022.2.5,122.42636816676976,
70.0,l1,f,en,na,../audio/070.wav,,l1_f_en_na_070,,,,,,,../image/computer.png,../image/bed.png,computer,lshift,1,computer,bed,computer,bed,None,,,,,,,,,0,2,2,9,,,,,,,,,,,,,649.2724963329965,lshift,1,3.089555959100835,650.2404352249694,,,,,RAP,001,2023-04-26_12h25.52.192,exp_g1,2022.2.5,122.42636816676976,
62.0,l1,f,en,na,../audio/062.wav,,l1_f_en_na_062,,,,,,,../image/shoe.png,../image/ring.png,shoe,lshift,1,shoe,ring,shoe,ring,None,,,,,,,,,0,3,3,1,,,,,,,,,,,,,652.3919381250162,lshift,1,1.8909438750706613,653.3647632659529,,,,,RAP,001,2023-04-26_12h25.52.192,exp_g1,2022.2.5,122.42636816676976,
71.0,l1,f,en,na,../audio/071.wav,,l1_f_en_na_071,,,,,,,../image/wallet.png,../image/plane.png,plane,rshift,1,plane,wallet,wallet,plane,None,,,,,,,,,0,4,4,10,,,,,,,,,,,,,654.3213764999527,rshift,1,2.7395455830264837,655.3043303499114,,,,,RAP,001,2023-04-26_12h25.52.192,exp_g1,2022.2.5,122.42636816676976,
133.0,l1,t,es,f0u,../audio/133.wav,,l1_t_es_f0u_133,,,,,,,../image/cellphone.png,../image/book.png,cellphone,lshift,1,cellphone,book,cellphone,book,None,,,,,,,,,0,5,5,47,,,,,,,,,,,,,657.0966764159966,lshift,1,2.5479748339857906,658.0743743499158,,,,,RAP,001,2023-04-26_12h25.52.192,exp_g1,2022.2.5,122.42636816676976,
15.0,l1,t,es,na,../audio/015.wav,,l1_t_es_na_015,,,,,,,../image/glasses.png,../image/jacket.png,glasses,lshift,1,glasses,jacket,glasses,jacket,None,,,,,,,,,0,6,6,39,,,,,,,,,,,,,659.6751774159493,lshift,1,2.7853823341429234,660.64793914092,,,,,RAP,001,2023-04-26_12h25.52.192,exp_g1,2022.2.5,122.42636816676976,
68.0,l1,f,en,na,../audio/068.wav,,l1_f_en_na_068,,,,,,,../image/socks.png,../image/book.png,socks,lshift,1,socks,book,socks,book,None,,,,,,,,,0,7,7,7,,,,,,,,,,,,,662.4927182500251,lshift,1,2.467693667043932,663.472395224974,,,,,RAP,001,2023-04-26_12h25.52.192,exp_g1,2022.2.5,122.42636816676976,
84.0,l1,f,se,na,../audio/084.wav,,l1_f_se_na_084,,,,,,,../image/penthouse.png,../image/rocket.png,penthouse,lshift,1,penthouse,rocket,penthouse,rocket,None,,,,,,,,,0,8,8,23,,,,,,,,,,,,,664.993854207918,lshift,1,2.8554145010421053,665.966929266008,,,,,RAP,001,2023-04-26_12h25.52.192,exp_g1,2022.2.5,122.42636816676976,
12.0,l1,t,es,na,../audio/012.wav,,l1_t_es_na_012,,,,,,,../image/newspaper.png,../image/book.png,book,rshift,1,book,newspaper,newspaper,book,None,,,,,,,,,0,9,9,36,,,,,,,,,,,,,667.8877881249646,rshift,1,2.705166707979515,668.8655150159145,,,,,RAP,001,2023-04-26_12h25.52.192,exp_g1,2022.2.5,122.42636816676976,
17.0,l1,t,es,na,../audio/017.wav,,l1_t_es_na_017,,,,,,,../image/jug.png,../image/cat.png,jug,lshift,1,jug,cat,jug,cat,None,,,,,,,,,0,10,10,41,,,,,,,,,,,,,670.6317542499164,lshift,1,2.889456751057878,671.5998418909846,,,,,RAP,001,2023-04-26_12h25.52.192,exp_g1,2022.2.5,122.42636816676976,
93.0,l1,f,sp,na,../audio/093.wav,,l1_f_sp_na_093,,,,,,,../image/boy.png,../image/book.png,book,rshift,1,book,boy,boy,book,None,,,,,,,,,0,11,11,32,,,,,,,,,,,,,673.5650782909943,rshift,1,1.9962711250409484,674.5309373079915,,,,,RAP,001,2023-04-26_12h25.52.192,exp_g1,2022.2.5,122.42636816676976,
79.0,l1,f,se,na,../audio/079.wav,,l1_f_se_na_079,,,,,,,../image/sweatpants.png,../image/jeans.png,jeans,rshift,1,jeans,sweatpants,sweatpants,jeans,None,,,,,,,,,0,12,12,18,,,,,,,,,,,,,675.5921485829167,rshift,1,2.4777804580517113,676.571879516018,,,,,RAP,001,2023-04-26_12h25.52.192,exp_g1,2022.2.5,122.42636816676976,
132.0,l1,t,es,f0u,../audio/132.wav,,l1_t_es_f0u_132,,,,,,,../image/car.png,../image/grandma.png,grandma,rshift,1,grandma,car,car,grandma,None,,,,,,,,,0,13,13,46,,,,,,,,,,,,,678.1014924999326,rshift,1,2.6086958340601996,679.081196640979,,,,,RAP,001,2023-04-26_12h25.52.192,exp_g1,2022.2.5,122.42636816676976,
19.0,l1,t,es,na,../audio/019.wav,,l1_t_es_na_019,,,,,,,../image/boy.png,../image/dog.png,boy,lshift,1,boy,dog,boy,dog,None,,,,,,,,,0,14,14,43,,,,,,,,,,,,,680.7425901659299,lshift,1,3.275859208079055,681.7146933910087,,,,,RAP,001,2023-04-26_12h25.52.192,exp_g1,2022.2.5,122.42636816676976,
94.0,l1,f,sp,na,../audio/094.wav,,l1_f_sp_na_094,,,,,,,../image/beer.png,../image/horchata.png,beer,lshift,1,beer,horchata,beer,horchata,None,,,,,,,,,0,15,15,33,,,,,,,,,,,,,684.0491889580153,lshift,1,2.9310251669958234,685.0309661829494,,,,,RAP,001,2023-04-26_12h25.52.192,exp_g1,2022.2.5,122.42636816676976,
14.0,l1,t,es,na,../audio/014.wav,,l1_t_es_na_014,,,,,,,../image/book.png,../image/key.png,key,rshift,1,key,book,book,key,None,,,,,,,,,0,16,16,38,,,,,,,,,,,,,687.007475915947,None,0,,687.9811951409908,,,,,RAP,001,2023-04-26_12h25.52.192,exp_g1,2022.2.5,122.42636816676976,
135.0,l1,t,es,f0u,../audio/135.wav,,l1_t_es_f0u_135,,,,,,,../image/flipflops.png,../image/flower.png,flipflops,lshift,1,flipflops,flower,flipflops,flower,None,,,,,,,,,0,17,17,49,,,,,,,,,,,,,692.0194916659966,lshift,1,2.4965491669718176,692.9833199749817,,,,,RAP,001,2023-04-26_12h25.52.192,exp_g1,2022.2.5,122.42636816676976,
83.0,l1,f,se,na,../audio/083.wav,,l1_f_se_na_083,,,,,,,../image/donut.png,../image/burger.png,burger,rshift,1,burger,donut,donut,burger,None,,,,,,,,,0,18,18,22,,,,,,,,,,,,,694.5545208749827,rshift,1,2.142261251108721,695.5309271409758,,,,,RAP,001,2023-04-26_12h25.52.192,exp_g1,2022.2.5,122.42636816676976,
85.0,l1,f,se,na,../audio/085.wav,,l1_f_se_na_085,,,,,,,../image/loafers.png,../image/sneakers.png,sneakers,rshift,1,sneakers,loafers,loafers,sneakers,None,,,,,,,,,0,19,19,24,,,,,,,,,,,,,696.7273816249799,rshift,1,2.8849791260436177,697.7068495579413,,,,,RAP,001,2023-04-26_12h25.52.192,exp_g1,2022.2.5,122.42636816676976,
136.0,l1,t,es,f0u,../audio/136.wav,,l1_t_es_f0u_136,,,,,,,../image/city.png,../image/village.png,village,rshift,1,village,city,city,village,None,,,,,,,,,0,20,20,50,,,,,,,,,,,,,699.6436069579795,lshift,0,2.683146374998614,700.6215027249534,,,,,RAP,001,2023-04-26_12h25.52.192,exp_g1,2022.2.5,122.42636816676976,
65.0,l1,f,en,na,../audio/065.wav,,l1_f_en_na_065,,,,,,,../image/computer.png,../image/book.png,book,rshift,1,book,computer,computer,book,None,,,,,,,,,0,21,21,4,,,,,,,,,,,,,702.358711207984,rshift,1,3.2629789580823854,703.3371793499798,,,,,RAP,001,2023-04-26_12h25.52.192,exp_g1,2022.2.5,122.42636816676976,
87.0,l1,f,sp,na,../audio/087.wav,,l1_f_sp_na_087,,,,,,,../image/desk.png,../image/bed.png,bed,rshift,1,bed,desk,desk,bed,None,,,,,,,,,0,22,22,26,,,,,,,,,,,,,705.651982332929,rshift,1,2.440777959069237,706.6361774329678,,,,,RAP,001,2023-04-26_12h25.52.192,exp_g1,2022.2.5,122.42636816676976,
18.0,l1,t,es,na,../audio/018.wav,,l1_t_es_na_018,,,,,,,../image/cups.png,../image/napkins.png,napkins,rshift,1,napkins,cups,cups,napkins,None,,,,,,,,,0,23,23,42,,,,,,,,,,,,,708.1235750409542,rshift,1,2.721895626047626,709.0973898499622,,,,,RAP,001,2023-04-26_12h25.52.192,exp_g1,2022.2.5,122.42636816676976,
77.0,l1,f,se,na,../audio/077.wav,,l1_f_se_na_077,,,,,,,../image/mashedpotatoes.png,../image/donut.png,donut,rshift,1,donut,mashedpotatoes,mashedpotatoes,donut,None,,,,,,,,,0,24,24,16,,,,,,,,,,,,,710.8755348749692,rshift,1,2.476346917101182,711.8473664330202,,,,,RAP,001,2023-04-26_12h25.52.192,exp_g1,2022.2.5,122.42636816676976,
137.0,l1,t,es,f0u,../audio/137.wav,,l1_t_es_f0u_137,,,,,,,../image/jacket.png,../image/shirt.png,jacket,lshift,1,jacket,shirt,jacket,shirt,None,,,,,,,,,0,25,25,51,,,,,,,,,,,,,713.3815657499945,lshift,1,3.048176292097196,714.3704126409837,,,,,RAP,001,2023-04-26_12h25.52.192,exp_g1,2022.2.5,122.42636816676976,
88.0,l1,f,sp,na,../audio/088.wav,,l1_f_sp_na_088,,,,,,,../image/book.png,../image/cellphone.png,book,lshift,1,book,cellphone,book,cellphone,None,,,,,,,,,0,26,26,27,,,,,,,,,,,,,716.4580774579663,lshift,1,2.435196709004231,717.4381213080021,,,,,RAP,001,2023-04-26_12h25.52.192,exp_g1,2022.2.5,122.42636816676976,
89.0,l1,f,sp,na,../audio/089.wav,,l1_f_sp_na_089,,,,,,,../image/bed.png,../image/wallet.png,wallet,rshift,1,wallet,bed,bed,wallet,None,,,,,,,,,0,27,27,28,,,,,,,,,,,,,718.9273784999968,rshift,1,2.417959584039636,719.8979387659463,,,,,RAP,001,2023-04-26_12h25.52.192,exp_g1,2022.2.5,122.42636816676976,
13.0,l1,t,es,na,../audio/013.wav,,l1_t_es_na_013,,,,,,,../image/beer.png,../image/wine.png,beer,lshift,1,beer,wine,beer,wine,None,,,,,,,,,0,28,28,37,,,,,,,,,,,,,721.374482040992,lshift,1,3.0287650420796126,722.3492609749198,,,,,RAP,001,2023-04-26_12h25.52.192,exp_g1,2022.2.5,122.42636816676976,
20.0,l1,t,es,na,../audio/020.wav,,l1_t_es_na_020,,,,,,,../image/cellphone.png,../image/backpack.png,backpack,rshift,1,backpack,cellphone,cellphone,backpack,None,,,,,,,,,0,29,29,44,,,,,,,,,,,,,724.4357190829469,rshift,1,2.681359709124081,725.4062933079083,,,,,RAP,001,2023-04-26_12h25.52.192,exp_g1,2022.2.5,122.42636816676976,
74.0,l1,f,en,na,../audio/074.wav,,l1_f_en_na_074,,,,,,,../image/boy.png,../image/woman.png,boy,lshift,1,boy,woman,boy,woman,None,,,,,,,,,0,30,30,13,,,,,,,,,,,,,727.1575340830022,lshift,1,2.2975958340102807,728.1330244749668,,,,,RAP,001,2023-04-26_12h25.52.192,exp_g1,2022.2.5,122.42636816676976,
81.0,l1,f,se,na,../audio/081.wav,,l1_f_se_na_081,,,,,,,../image/boxers.png,../image/sweatpants.png,sweatpants,rshift,1,sweatpants,boxers,boxers,sweatpants,None,,,,,,,,,0,31,31,20,,,,,,,,,,,,,729.4849326249678,rshift,1,2.79652704205364,730.4561421409132,,,,,RAP,001,2023-04-26_12h25.52.192,exp_g1,2022.2.5,122.42636816676976,
92.0,l1,f,sp,na,../audio/092.wav,,l1_f_sp_na_092,,,,,,,../image/armchair.png,../image/dog.png,armchair,lshift,1,armchair,dog,armchair,dog,None,,,,,,,,,0,32,32,31,,,,,,,,,,,,,732.3220115000149,lshift,1,2.2632650421001017,733.3036398909869,,,,,RAP,001,2023-04-26_12h25.52.192,exp_g1,2022.2.5,122.42636816676976,
11.0,l1,t,es,na,../audio/011.wav,,l1_t_es_na_011,,,,,,,../image/armchair.png,../image/bed.png,armchair,lshift,1,armchair,bed,armchair,bed,None,,,,,,,,,0,33,33,35,,,,,,,,,,,,,734.6224458749639,lshift,1,2.2927865829551592,735.5971714749583,,,,,RAP,001,2023-04-26_12h25.52.192,exp_g1,2022.2.5,122.42636816676976,
69.0,l1,f,en,na,../audio/069.wav,,l1_f_en_na_069,,,,,,,../image/bag.png,../image/shirt.png,shirt,rshift,1,shirt,bag,bag,shirt,None,,,,,,,,,0,34,34,8,,,,,,,,,,,,,736.9545558330137,rshift,1,2.4260378341423348,737.9304927250021,,,,,RAP,001,2023-04-26_12h25.52.192,exp_g1,2022.2.5,122.42636816676976,
140.0,l1,t,es,f0u,../audio/140.wav,,l1_t_es_f0u_140,,,,,,,../image/ring.png,../image/bracelet.png,bracelet,rshift,1,bracelet,ring,ring,bracelet,None,,,,,,,,,0,35,35,54,,,,,,,,,,,,,739.4207445000065,rshift,1,2.9547747500473633,740.397088725015,,,,,RAP,001,2023-04-26_12h25.52.192,exp_g1,2022.2.5,122.42636816676976,
95.0,l1,f,sp,na,../audio/095.wav,,l1_f_sp_na_095,,,,,,,../image/socks.png,../image/key.png,key,rshift,1,key,socks,socks,key,None,,,,,,,,,0,36,36,34,,,,,,,,,,,,,742.4075897079892,rshift,1,2.2683563340688124,743.3804545579594,,,,,RAP,001,2023-04-26_12h25.52.192,exp_g1,2022.2.5,122.42636816676976,
90.0,l1,f,sp,na,../audio/090.wav,,l1_f_sp_na_090,,,,,,,../image/bag.png,../image/bottle.png,bag,lshift,1,bag,bottle,bag,bottle,None,,,,,,,,,0,37,37,29,,,,,,,,,,,,,744.7041726659518,lshift,1,2.339473708998412,745.6825238500139,,,,,RAP,001,2023-04-26_12h25.52.192,exp_g1,2022.2.5,122.42636816676976,
131.0,l1,t,es,f0u,../audio/131.wav,,l1_t_es_f0u_131,,,,,,,../image/cat.png,../image/flower.png,cat,lshift,1,cat,flower,cat,flower,None,,,,,,,,,0,38,38,45,,,,,,,,,,,,,747.0753464159789,lshift,1,2.390215333085507,748.048838850006,,,,,RAP,001,2023-04-26_12h25.52.192,exp_g1,2022.2.5,122.42636816676976,
67.0,l1,f,en,na,../audio/067.wav,,l1_f_en_na_067,,,,,,,../image/beer.png,../image/glasses.png,glasses,rshift,1,glasses,beer,beer,glasses,None,,,,,,,,,0,39,39,6,,,,,,,,,,,,,749.4985260829562,rshift,1,2.6999229590874165,750.4827278909622,,,,,RAP,001,2023-04-26_12h25.52.192,exp_g1,2022.2.5,122.42636816676976,
16.0,l1,t,es,na,../audio/016.wav,,l1_t_es_na_016,,,,,,,../image/flipflops.png,../image/bag.png,bag,rshift,1,bag,flipflops,flipflops,bag,None,,,,,,,,,0,40,40,40,,,,,,,,,,,,,752.2331227909308,rshift,1,3.448479084065184,753.2138830999727,,,,,RAP,001,2023-04-26_12h25.52.192,exp_g1,2022.2.5,122.42636816676976,
63.0,l1,f,en,na,../audio/063.wav,,l1_f_en_na_063,,,,,,,../image/woman.png,../image/man.png,man,rshift,1,man,woman,woman,man,None,,,,,,,,,0,41,41,2,,,,,,,,,,,,,755.7098987909267,rshift,1,2.20585154206492,756.6879271830082,,,,,RAP,001,2023-04-26_12h25.52.192,exp_g1,2022.2.5,122.42636816676976,
61.0,l1,f,en,na,../audio/061.wav,,l1_f_en_na_061,,,,,,,../image/cat.png,../image/dog.png,dog,rshift,1,dog,cat,cat,dog,../image/,,,,,,,,,0,42,42,0,,,,,,,,,,,,,757.9490345829399,rshift,1,2.043864000006579,758.9223829750088,,,,,RAP,001,2023-04-26_12h25.52.192,exp_g1,2022.2.5,122.42636816676976,
72.0,l1,f,en,na,../audio/072.wav,,l1_f_en_na_072,,,,,,,../image/dog.png,../image/fish.png,dog,lshift,1,dog,fish,dog,fish,None,,,,,,,,,0,43,43,11,,,,,,,,,,,,,760.0242724579293,lshift,1,2.3169669170165434,761.0040761829703,,,,,RAP,001,2023-04-26_12h25.52.192,exp_g1,2022.2.5,122.42636816676976,
64.0,l1,f,en,na,../audio/064.wav,,l1_f_en_na_064,,,,,,,../image/wallet.png,../image/key.png,wallet,lshift,1,wallet,key,wallet,key,None,,,,,,,,,0,44,44,3,,,,,,,,,,,,,762.3794495000038,rshift,0,2.1220110000576824,763.3493477659183,,,,,RAP,001,2023-04-26_12h25.52.192,exp_g1,2022.2.5,122.42636816676976,
82.0,l1,f,se,na,../audio/082.wav,,l1_f_se_na_082,,,,,,,../image/mickeymouse.png,../image/spongebob.png,mickeymouse,lshift,1,mickeymouse,spongebob,mickeymouse,spongebob,None,,,,,,,,,0,45,45,21,,,,,,,,,,,,,764.5325873750262,lshift,1,2.4773742090910673,765.5136947659892,,,,,RAP,001,2023-04-26_12h25.52.192,exp_g1,2022.2.5,122.42636816676976,
78.0,l1,f,se,na,../audio/078.wav,,l1_f_se_na_078,,,,,,,../image/airpods.png,../image/joycons.png,airpods,lshift,1,airpods,joycons,airpods,joycons,None,,,,,,,,,0,46,46,17,,,,,,,,,,,,,767.0398035829421,lshift,1,2.410477292025462,768.0208964329329,,,,,RAP,001,2023-04-26_12h25.52.192,exp_g1,2022.2.5,122.42636816676976,
75.0,l1,f,en,na,../audio/075.wav,,l1_f_en_na_075,,,,,,,../image/dog.png,../image/fish.png,fish,rshift,1,fish,dog,dog,fish,None,,,,,,,,,0,47,47,14,,,,,,,,,,,,,769.4824017499341,rshift,1,2.6771921251202,770.4553626409149,,,,,RAP,001,2023-04-26_12h25.52.192,exp_g1,2022.2.5,122.42636816676976,
73.0,l1,f,en,na,../audio/073.wav,,l1_f_en_na_073,,,,,,,../image/socks.png,../image/tshirt.png,tshirt,rshift,1,tshirt,socks,socks,tshirt,None,,,,,,,,,0,48,48,12,,,,,,,,,,,,,772.1911799159134,rshift,1,2.570237376028672,773.164874682913,,,,,RAP,001,2023-04-26_12h25.52.192,exp_g1,2022.2.5,122.42636816676976,
134.0,l1,t,es,f0u,../audio/134.wav,,l1_t_es_f0u_134,,,,,,,../image/basket.png,../image/truck.png,truck,rshift,1,truck,basket,basket,truck,None,,,,,,,,,0,49,49,48,,,,,,,,,,,,,774.7969314999646,rshift,1,2.6736273750429973,775.7707028079428,,,,,RAP,001,2023-04-26_12h25.52.192,exp_g1,2022.2.5,122.42636816676976,
138.0,l1,t,es,f0u,../audio/138.wav,,l1_t_es_f0u_138,,,,,,,../image/pants.png,../image/shirt.png,shirt,rshift,1,shirt,pants,pants,shirt,None,,,,,,,,,0,50,50,52,,,,,,,,,,,,,777.5047564579872,rshift,1,2.5708472090773284,778.4742122659343,,,,,RAP,001,2023-04-26_12h25.52.192,exp_g1,2022.2.5,122.42636816676976,
80.0,l1,f,se,na,../audio/080.wav,,l1_f_se_na_080,,,,,,,../image/mouse.png,../image/rat.png,mouse,lshift,1,mouse,rat,mouse,rat,None,,,,,,,,,0,51,51,19,,,,,,,,,,,,,780.1046215830138,rshift,0,2.4425388750387356,781.0820792659767,,,,,RAP,001,2023-04-26_12h25.52.192,exp_g1,2022.2.5,122.42636816676976,
139.0,l1,t,es,f0u,../audio/139.wav,,l1_t_es_f0u_139,,,,,,,../image/restaurant.png,../image/hotel.png,restaurant,lshift,1,restaurant,hotel,restaurant,hotel,None,,,,,,,,,0,52,52,53,,,,,,,,,,,,,782.5891172499396,lshift,1,2.856070499983616,783.5638008079375,,,,,RAP,001,2023-04-26_12h25.52.192,exp_g1,2022.2.5,122.42636816676976,
76.0,l1,f,se,na,../audio/076.wav,,l1_f_se_na_076,,,,,,,../image/hotdog.png,../image/burger.png,hotdog,lshift,1,hotdog,burger,hotdog,burger,None,,,,,,,,,0,53,53,15,,,,,,,,,,,,,785.4769957499811,lshift,1,2.325067833997309,786.4467192660202,,,,,RAP,001,2023-04-26_12h25.52.192,exp_g1,2022.2.5,122.42636816676976,
66.0,l1,f,en,na,../audio/066.wav,,l1_f_en_na_066,,,,,,,../image/bag.png,../image/scarf.png,bag,lshift,1,bag,scarf,bag,scarf,None,,,,,,,,,0,54,54,5,,,,,,,,,,,,,787.8337776249973,lshift,1,2.7443368340609595,788.8153110159444,,,,,RAP,001,2023-04-26_12h25.52.192,exp_g1,2022.2.5,122.42636816676976,
tr1,lt,tr,en,na,../practice_trial/audio/tr1.wav,Where are your kids?,lt_tr_en_na_tr1,-,-,-,-,-,-,../image/america.png,../image/spain.png,,,,,,,,,,,,,,,,,,,,,0,0,0,0,0,0,0,0,,,,,,,,,,1463.548321624985,1464.3989887659088,['lshift'],[2.791643292061053],RAP,001,2023-04-26_12h25.52.192,exp_g1,2022.2.5,122.42636816676976,
tr2,lt,tr,en,na,../practice_trial/audio/tr2.wav,Who is buying my car?,lt_tr_en_na_tr2,-,-,-,-,-,-,../image/america.png,../image/spain.png,,,,,,,,,,,,,,,,,,,,,0,0,0,0,0,1,1,1,,,,,,,,,,1468.4218792909523,1469.3973648499348,['lshift'],[3.424691459047608],RAP,001,2023-04-26_12h25.52.192,exp_g1,2022.2.5,122.42636816676976,
tr3,lt,tr,sp,na,../practice_trial/audio/tr3.wav,¿Dónde está mi perro?,lt_tr_sp_na_tr3,-,-,-,-,-,-,../image/america.png,../image/spain.png,,,,,,,,,,,,,,,,,,,,,0,0,0,0,0,2,2,2,,,,,,,,,,1473.4196880829986,1474.3989359749364,['rshift'],[2.151228167116642],RAP,001,2023-04-26_12h25.52.192,exp_g1,2022.2.5,122.42636816676976,
tr4,lt,tr,sp,na,../practice_trial/audio/tr4.wav,¿De quién es la bolsa?,lt_tr_sp_na_tr4,-,-,-,-,-,-,../image/america.png,../image/spain.png,,,,,,,,,,,,,,,,,,,,,0,0,0,0,0,3,3,3,,,,,,,,,,1478.419735500007,1479.397437640943,['rshift'],[2.2178740419913083],RAP,001,2023-04-26_12h25.52.192,exp_g1,2022.2.5,122.42636816676976,
tr5,lt,tr,se,na,../practice_trial/audio/tr5.wav,¿Dónde encontraste sus donuts?,lt_tr_se_na_tr5,-,-,-,-,-,-,../image/america.png,../image/spain.png,,,,,,,,,,,,,,,,,,,,,0,0,0,0,0,4,4,4,,,,,,,,,,1483.4223069999134,1484.4092946410062,"['rshift', 'lshift']","[1.865006084088236, 3.21545462612994]",RAP,001,2023-04-26_12h25.52.192,exp_g1,2022.2.5,122.42636816676976,
tr6,lt,tr,se,na,../practice_trial/audio/tr6.wav,¿Cuándo compraste tu sweater?,lt_tr_se_na_tr6,-,-,-,-,-,-,../image/america.png,../image/spain.png,,,,,,,,,,,,,,,,,,,,,0,0,0,0,0,5,5,5,,,,,,,,,,1488.4199417500058,1489.3991798079921,"['rshift', 'lshift']","[3.8722120421007276, 4.183659876114689]",RAP,001,2023-04-26_12h25.52.192,exp_g1,2022.2.5,122.42636816676976,
tr7,lt,tr,es,na,../practice_trial/audio/tr7.wav,Why do you have my camisa?,lt_tr_es_na_tr7,-,-,-,-,-,-,../image/america.png,../image/spain.png,,,,,,,,,,,,,,,,,,,,,0,0,0,0,0,6,6,6,,,,,,,,,,1493.4193094579969,1494.3973375159665,"['lshift', 'rshift']","[2.90857250103727, 3.156463959021494]",RAP,001,2023-04-26_12h25.52.192,exp_g1,2022.2.5,122.42636816676976,
tr8,lt,tr,es,na,../practice_trial/audio/tr8.wav,Where did you find his chanclas?,lt_tr_es_na_tr8,-,-,-,-,-,-,../image/america.png,../image/spain.png,,,,,,,,,,,,,,,,,,,,,0,0,0,0,0,7,7,7,,,,,,,,,,1498.4194121250184,1499.397498891002,"['lshift', 'rshift']","[1.9058499170932919, 2.6271401670528576]",RAP,001,2023-04-26_12h25.52.192,exp_g1,2022.2.5,122.42636816676976,
,,,,,,,,,,,,,,,,,,,,,,,,,,,,,,,,,,,,0,0,0,0,,,,,,,,,,,,,,,,,,RAP,001,2023-04-26_12h25.52.192,exp_g1,2022.2.5,122.42636816676976,
tr1,lt,tr,en,na,../practice_trial/audio/tr1.wav,Where are your kids?,lt_tr_en_na_tr1,-,-,-,-,-,-,../image/america.png,../image/spain.png,,,,,,,,,,,,,,,,,,,,,1,0,1,0,0,0,0,0,,,,,,,,,,1572.594396749977,1573.5480422659427,['lshift'],[2.1785812090383843],RAP,001,2023-04-26_12h25.52.192,exp_g1,2022.2.5,122.42636816676976,
tr2,lt,tr,en,na,../practice_trial/audio/tr2.wav,Who is buying my car?,lt_tr_en_na_tr2,-,-,-,-,-,-,../image/america.png,../image/spain.png,,,,,,,,,,,,,,,,,,,,,1,0,1,0,0,1,1,1,,,,,,,,,,1577.5716183329932,1578.5467029329272,['lshift'],[1.913481584051624],RAP,001,2023-04-26_12h25.52.192,exp_g1,2022.2.5,122.42636816676976,
tr3,lt,tr,sp,na,../practice_trial/audio/tr3.wav,¿Dónde está mi perro?,lt_tr_sp_na_tr3,-,-,-,-,-,-,../image/america.png,../image/spain.png,,,,,,,,,,,,,,,,,,,,,1,0,1,0,0,2,2,2,,,,,,,,,,1582.5700888750143,1583.541418765916,"['lshift', 'rshift', 'lshift', 'rshift']","[1.7830146260093898, 2.2093229170423, 2.5735722510144114, 4.271515084081329]",RAP,001,2023-04-26_12h25.52.192,exp_g1,2022.2.5,122.42636816676976,
tr4,lt,tr,sp,na,../practice_trial/audio/tr4.wav,¿De quién es la bolsa?,lt_tr_sp_na_tr4,-,-,-,-,-,-,../image/america.png,../image/spain.png,,,,,,,,,,,,,,,,,,,,,1,0,1,0,0,3,3,3,,,,,,,,,,1587.5752477910137,1588.5413462249678,['rshift'],[2.2275795839959756],RAP,001,2023-04-26_12h25.52.192,exp_g1,2022.2.5,122.42636816676976,
tr5,lt,tr,se,na,../practice_trial/audio/tr5.wav,¿Dónde encontraste sus donuts?,lt_tr_se_na_tr5,-,-,-,-,-,-,../image/america.png,../image/spain.png,,,,,,,,,,,,,,,,,,,,,1,0,1,0,0,4,4,4,,,,,,,,,,1592.568224415998,1593.5479140159557,"['rshift', 'lshift']","[2.095280750072561, 2.9513716670917347]",RAP,001,2023-04-26_12h25.52.192,exp_g1,2022.2.5,122.42636816676976,
tr6,lt,tr,se,na,../practice_trial/audio/tr6.wav,¿Cuándo compraste tu sweater?,lt_tr_se_na_tr6,-,-,-,-,-,-,../image/america.png,../image/spain.png,,,,,,,,,,,,,,,,,,,,,1,0,1,0,0,5,5,5,,,,,,,,,,1597.57042299991,1598.5478553499677,"['rshift', 'lshift']","[1.8653891250723973, 2.9168064170517027]",RAP,001,2023-04-26_12h25.52.192,exp_g1,2022.2.5,122.42636816676976,
tr7,lt,tr,es,na,../practice_trial/audio/tr7.wav,Why do you have my camisa?,lt_tr_es_na_tr7,-,-,-,-,-,-,../image/america.png,../image/spain.png,,,,,,,,,,,,,,,,,,,,,1,0,1,0,0,6,6,6,,,,,,,,,,1602.5682597499108,1603.5483439329662,"['rshift', 'lshift', 'rshift']","[1.834673208068125, 2.3065837080357596, 3.3180399170378223]",RAP,001,2023-04-26_12h25.52.192,exp_g1,2022.2.5,122.42636816676976,
tr8,lt,tr,es,na,../practice_trial/audio/tr8.wav,Where did you find his chanclas?,lt_tr_es_na_tr8,-,-,-,-,-,-,../image/america.png,../image/spain.png,,,,,,,,,,,,,,,,,,,,,1,0,1,0,0,7,7,7,,,,,,,,,,1607.5681591249304,1608.548661307909,"['lshift', 'rshift']","[1.793374374974519, 2.517856957972981]",RAP,001,2023-04-26_12h25.52.192,exp_g1,2022.2.5,122.42636816676976,
