num,list,cond,lang,type,sound_dir,phr,sent_code,mat,mat_num,emb_num,emb,cut,mat_f0_c,left,right,correct_img,correct,exp_num,image,image_alt,left_img,right_img,correct_key,image_dir,cs,exp1_retrial.thisRepN,exp1_retrial.thisTrialN,exp1_retrial.thisN,exp1_retrial.thisIndex,exp1_trial_loop.thisRepN,exp1_trial_loop.thisTrialN,exp1_trial_loop.thisN,exp1_trial_loop.thisIndex,exp1_loop.thisRepN,exp1_loop.thisTrialN,exp1_loop.thisN,exp1_loop.thisIndex,exp2_retrial.thisRepN,exp2_retrial.thisTrialN,exp2_retrial.thisN,exp2_retrial.thisIndex,exp2_trial_loop.thisRepN,exp2_trial_loop.thisTrialN,exp2_trial_loop.thisN,exp2_trial_loop.thisIndex,exp2_loop.thisRepN,exp2_loop.thisTrialN,exp2_loop.thisN,exp2_loop.thisIndex,welcome_text.started,end_welcome.keys,end_welcome.rt,exp1_instr_text.started,exp1_trial_image_l.started,exp1_trial_image_r.started,exp1_trial_key.started,exp1_trial_key.keys,exp1_trial_key.rt,exp1_trial_sound.started,end_exp1_trial_text.started,end_exp1_trial_key.started,exp1_start_key.started,exp1_start_text.started,exp1_start_key.keys,exp1_start_key.rt,exp1_image_l.started,exp1_image_r.started,exp1_key.started,exp1_sound.started,exp1_key.keys,exp1_key.rt,exp1_end_text.started,exp1_end_key.started,exp1_end_key.keys,exp1_end_key.rt,exp2_instr_text.started,exp2_trial_iamge_l.started,exp2_trial_image_r.started,exp2_trial_key.started,exp2_trial_sound.started,exp2_trial_key.keys,exp2_trial_key.rt,end_exp2_trial_text.started,end_exp2_trial_key.started,exp2_start_key.started,exp2_start_text.started,exp2_start_key.keys,exp2_start_key.rt,exp2_key.started,exp2_sound.started,exp2_key.keys,exp2_key.rt,full_end_text.started,full_end_key.started,full_end_key.keys,full_end_key.rt,participant,session,date,expName,psychopyVersion,frameRate,
,,,,,,,,,,,,,,,,,,,,,,,,,,,,,,,,,,,,,,,,,,,,,,,,,,13.634741042000314,space,0.7517794160003177,,,,,,,,,,,,,,,,,,,,,,,,,,,,,,,,,,,,,,,,,,,,,test1,001,2023-04-02_20h13.22.629,exp,2022.2.5,None,
tr1,lt,tr,en,na,../practice_trial/audio/tr1.wav,Where are your kids?,lt_tr_en_na_tr1,-,-,-,-,-,-,../image/kids.png,../image/plates.png,kids,lshift,,,,,,,,,0,0,0,0,0,0,0,0,,,,,,,,,,,,,,,,,,,,14.401724875000127,14.992840082999919,14.992840082999919,14.992840082999919,['lshift'],[0.6685218329998861],,,,,,,,,,,,,,,,,,,,,,,,,,,,,,,,,,,,,,,test1,001,2023-04-02_20h13.22.629,exp,2022.2.5,None,
tr2,lt,tr,en,na,../practice_trial/audio/tr2.wav,Who is buying my car?,lt_tr_en_na_tr2,-,-,-,-,-,-,../image/bag.png,../image/car.png,car,rshift,,,,,,,,,0,0,0,0,0,1,1,1,,,,,,,,,,,,,,,,,,,,,15.686640792000162,15.686640792000162,15.686640792000162,['rshift'],[1.4459048749999965],16.67463133366688,,,,,,,,,,,,,,,,,,,,,,,,,,,,,,,,,,,,,,test1,001,2023-04-02_20h13.22.629,exp,2022.2.5,None,
tr3,lt,tr,sp,na,../practice_trial/audio/tr3.wav,¿Dónde está mi perro?,lt_tr_sp_na_tr3,-,-,-,-,-,-,../image/dog.png,../image/grandma.png,dog,lshift,,,,,,,,,0,0,0,0,0,2,2,2,,,,,,,,,,,,,,,,,,,,,17.176347750000332,17.176347750000332,17.176347750000332,['lshift'],[1.3130535410000448],18.158040499666882,,,,,,,,,,,,,,,,,,,,,,,,,,,,,,,,,,,,,,test1,001,2023-04-02_20h13.22.629,exp,2022.2.5,None,
tr4,lt,tr,sp,na,../practice_trial/audio/tr4.wav,¿De quién es la bolsa?,lt_tr_sp_na_tr4,-,-,-,-,-,-,../image/shirt.png,../image/bag.png,bag,rshift,,,,,,,,,0,0,0,0,0,3,3,3,,,,,,,,,,,,,,,,,,,,,18.519347917000232,18.519347917000232,18.519347917000232,['rshift'],[1.2121519170000283],19.507924958666777,,,,,,,,,,,,,,,,,,,,,,,,,,,,,,,,,,,,,,test1,001,2023-04-02_20h13.22.629,exp,2022.2.5,None,
tr5,lt,tr,se,na,../practice_trial/audio/tr5.wav,¿Dónde encontraste sus donuts?,lt_tr_se_na_tr5,-,-,-,-,-,-,../image/donut.png,../image/cups.png,donut,lshift,,,,,,,,,0,0,0,0,0,4,4,4,,,,,,,,,,,,,,,,,,,,,19.775378958000147,19.775378958000147,19.775378958000147,['lshift'],[1.235510374000114],20.75805379166674,,,,,,,,,,,,,,,,,,,,,,,,,,,,,,,,,,,,,,test1,001,2023-04-02_20h13.22.629,exp,2022.2.5,None,
tr6,lt,tr,se,na,../practice_trial/audio/tr6.wav,¿Cuándo compraste tu sweater?,lt_tr_se_na_tr6,-,-,-,-,-,-,../image/chair.png,../image/sweater.png,sweater,rshift,,,,,,,,,0,0,0,0,0,5,5,5,,,,,,,,,,,,,,,,,,,,,21.0424712920003,21.0424712920003,21.0424712920003,['rshift'],[1.1960725409999213],22.024656041666972,,,,,,,,,,,,,,,,,,,,,,,,,,,,,,,,,,,,,,test1,001,2023-04-02_20h13.22.629,exp,2022.2.5,None,
tr7,lt,tr,es,na,../practice_trial/audio/tr7.wav,Why do you have my camisa?,lt_tr_es_na_tr7,-,-,-,-,-,-,../image/shirt.png,../image/wallet.png,shirt,lshift,,,,,,,,,0,0,0,0,0,6,6,6,,,,,,,,,,,,,,,,,,,,,22.273537750000287,22.273537750000287,22.273537750000287,['lshift'],[1.2226464580003267],23.258018166666957,,,,,,,,,,,,,,,,,,,,,,,,,,,,,,,,,,,,,,test1,001,2023-04-02_20h13.22.629,exp,2022.2.5,None,
tr8,lt,tr,es,na,../practice_trial/audio/tr8.wav,Where did you find his chanclas?,lt_tr_es_na_tr8,-,-,-,-,-,-,../image/key.png,../image/flipflops.png,flipflops,rshift,,,,,,,,,0,0,0,0,0,7,7,7,,,,,,,,,,,,,,,,,,,,,23.53754783300019,23.53754783300019,23.53754783300019,['rshift'],[1.2098854999999276],24.524613333666608,,,,,,,,,,,,,,,,,,,,,,,,,,,,,,,,,,,,,,test1,001,2023-04-02_20h13.22.629,exp,2022.2.5,None,
,,,,,,,,,,,,,,,,,,,,,,,,,,0,0,0,0,,,,,,,,,,,,,,,,,,,,,,,,,,,,,,,24.773432458000116,24.773432458000116,,,,,,,,,,,,,,,,,,,,,,,,,,,,,,,,,,,,test1,001,2023-04-02_20h13.22.629,exp,2022.2.5,None,
,,,,,,,,,,,,,,,,,,,,,,,,,,,,,,,,,,,,,,,,,,,,,,,,,,,,,,,,,,,,,,26.03028870800017,26.03028870800017,rshift,0.8959555000001274,,,,,,,,,,,,,,,,,,,,,,,,,,,,,,,,test1,001,2023-04-02_20h13.22.629,exp,2022.2.5,None,
61.0,l1,f,en,na,../audio/061.wav,,l1_f_en_na_061,,,,,,,../image/cat.png,../image/dog.png,dog,,1,dog,cat,cat,dog,r,../image/,,,,,,,,,,0,0,0,0,,,,,,,,,,,,,,,,,,,,,,,,,,,,,27.039465917000143,27.039465917000143,27.039465917000143,27.92977199966687,['lshift'],[1.1367625409998254],,,,,,,,,,,,,,,,,,,,,,,,,,test1,001,2023-04-02_20h13.22.629,exp,2022.2.5,None,
76.0,l1,f,se,na,../audio/076.wav,,l1_f_se_na_076,,,,,,,../image/hotdog.png,../image/burger.png,hotdog,,1,hotdog,burger,hotdog,burger,l,None,,,,,,,,,,0,1,1,15,,,,,,,,,,,,,,,,,,,,,,,,,,,,,28.213218125000367,28.213218125000367,28.213218125000367,29.19137954166696,['rshift'],[1.174728624999716],,,,,,,,,,,,,,,,,,,,,,,,,,test1,001,2023-04-02_20h13.22.629,exp,2022.2.5,None,
19.0,l1,t,es,na,../audio/019.wav,,l1_t_es_na_019,,,,,,,../image/boy.png,../image/dog.png,boy,,1,boy,dog,boy,dog,l,None,,,,,,,,,,0,2,2,43,,,,,,,,,,,,,,,,,,,,,,,,,,,,,29.42755675000035,29.42755675000035,29.42755675000035,30.40789779166677,['lshift'],[1.155519583000114],,,,,,,,,,,,,,,,,,,,,,,,,,test1,001,2023-04-02_20h13.22.629,exp,2022.2.5,None,
11.0,l1,t,es,na,../audio/011.wav,,l1_t_es_na_011,,,,,,,../image/armchair.png,../image/bed.png,armchair,,1,armchair,bed,armchair,bed,l,None,,,,,,,,,,0,3,3,35,,,,,,,,,,,,,,,,,,,,,,,,,,,,,30.628430582999954,30.628430582999954,30.628430582999954,31.60792295866692,['rshift'],[1.1709031660002438],,,,,,,,,,,,,,,,,,,,,,,,,,test1,001,2023-04-02_20h13.22.629,exp,2022.2.5,None,
78.0,l1,f,se,na,../audio/078.wav,,l1_f_se_na_078,,,,,,,../image/airpods.png,../image/joycons.png,airpods,,1,airpods,joycons,airpods,joycons,l,None,,,,,,,,,,0,4,4,17,,,,,,,,,,,,,,,,,,,,,,,,,,,,,31.83662137500005,31.83662137500005,31.83662137500005,32.824724374666644,['lshift'],[1.2277055409999775],,,,,,,,,,,,,,,,,,,,,,,,,,test1,001,2023-04-02_20h13.22.629,exp,2022.2.5,None,
134.0,l1,t,es,f0u,../audio/134.wav,,l1_t_es_f0u_134,,,,,,,../image/basket.png,../image/truck.png,truck,,1,truck,basket,basket,truck,r,None,,,,,,,,,,0,5,5,48,,,,,,,,,,,,,,,,,,,,,,,,,,,,,33.109460417000264,33.109460417000264,33.109460417000264,34.09124466666687,['rshift'],[1.1737404580003385],,,,,,,,,,,,,,,,,,,,,,,,,,test1,001,2023-04-02_20h13.22.629,exp,2022.2.5,None,
133.0,l1,t,es,f0u,../audio/133.wav,,l1_t_es_f0u_133,,,,,,,../image/cellphone.png,../image/book.png,cellphone,,1,cellphone,book,cellphone,book,l,None,,,,,,,,,,0,6,6,47,,,,,,,,,,,,,,,,,,,,,,,,,,,,,34.327166000000034,34.327166000000034,34.327166000000034,35.30744591666668,['lshift'],[1.1943941250001444],,,,,,,,,,,,,,,,,,,,,,,,,,test1,001,2023-04-02_20h13.22.629,exp,2022.2.5,None,
93.0,l1,f,sp,na,../audio/093.wav,,l1_f_sp_na_093,,,,,,,../image/boy.png,../image/book.png,book,,1,book,boy,boy,book,r,None,,,,,,,,,,0,7,7,32,,,,,,,,,,,,,,,,,,,,,,,,,,,,,35.55397783300032,35.55397783300032,35.55397783300032,36.528829666666994,['rshift'],[1.214365374999943],,,,,,,,,,,,,,,,,,,,,,,,,,test1,001,2023-04-02_20h13.22.629,exp,2022.2.5,None,
62.0,l1,f,en,na,../audio/062.wav,,l1_f_en_na_062,,,,,,,../image/shoe.png,../image/ring.png,shoe,,1,shoe,ring,shoe,ring,l,None,,,,,,,,,,0,8,8,1,,,,,,,,,,,,,,,,,,,,,,,,,,,,,36.808803417000036,36.808803417000036,36.808803417000036,37.79110437466694,['lshift'],[1.2444906249997985],,,,,,,,,,,,,,,,,,,,,,,,,,test1,001,2023-04-02_20h13.22.629,exp,2022.2.5,None,
88.0,l1,f,sp,na,../audio/088.wav,,l1_f_sp_na_088,,,,,,,../image/book.png,../image/cellphone.png,book,,1,book,cellphone,book,cellphone,l,None,,,,,,,,,,0,9,9,27,,,,,,,,,,,,,,,,,,,,,,,,,,,,,38.09140683300029,38.09140683300029,38.09140683300029,39.07440145866691,['rshift'],[1.1703704159999688],,,,,,,,,,,,,,,,,,,,,,,,,,test1,001,2023-04-02_20h13.22.629,exp,2022.2.5,None,
63.0,l1,f,en,na,../audio/063.wav,,l1_f_en_na_063,,,,,,,../image/woman.png,../image/man.png,man,,1,man,woman,woman,man,r,None,,,,,,,,,,0,10,10,2,,,,,,,,,,,,,,,,,,,,,,,,,,,,,39.29922370800023,39.29922370800023,39.29922370800023,40.27463199966702,['lshift'],[1.2289230829996995],,,,,,,,,,,,,,,,,,,,,,,,,,test1,001,2023-04-02_20h13.22.629,exp,2022.2.5,None,
85.0,l1,f,se,na,../audio/085.wav,,l1_f_se_na_085,,,,,,,../image/loafers.png,../image/sneakers.png,sneakers,,1,sneakers,loafers,loafers,sneakers,r,None,,,,,,,,,,0,11,11,24,,,,,,,,,,,,,,,,,,,,,,,,,,,,,40.56219170800023,40.56219170800023,40.56219170800023,41.54062387466662,['rshift'],[1.183484916999987],,,,,,,,,,,,,,,,,,,,,,,,,,test1,001,2023-04-02_20h13.22.629,exp,2022.2.5,None,
136.0,l1,t,es,f0u,../audio/136.wav,,l1_t_es_f0u_136,,,,,,,../image/city.png,../image/village.png,village,,1,village,city,city,village,r,None,,,,,,,,,,0,12,12,50,,,,,,,,,,,,,,,,,,,,,,,,,,,,,41.790116042000136,41.790116042000136,41.790116042000136,42.77418654166674,['lshift'],[1.1973682500001814],,,,,,,,,,,,,,,,,,,,,,,,,,test1,001,2023-04-02_20h13.22.629,exp,2022.2.5,None,
87.0,l1,f,sp,na,../audio/087.wav,,l1_f_sp_na_087,,,,,,,../image/desk.png,../image/bed.png,bed,,1,bed,desk,desk,bed,r,None,,,,,,,,,,0,13,13,26,,,,,,,,,,,,,,,,,,,,,,,,,,,,,43.024313625000104,43.024313625000104,43.024313625000104,44.00791566666682,['rshift'],[1.1881305410001914],,,,,,,,,,,,,,,,,,,,,,,,,,test1,001,2023-04-02_20h13.22.629,exp,2022.2.5,None,
137.0,l1,t,es,f0u,../audio/137.wav,,l1_t_es_f0u_137,,,,,,,../image/jacket.png,../image/shirt.png,jacket,,1,jacket,shirt,jacket,shirt,l,None,,,,,,,,,,0,14,14,51,,,,,,,,,,,,,,,,,,,,,,,,,,,,,44.2410439170003,44.2410439170003,44.2410439170003,45.22446983366696,['lshift'],[1.2020924170001308],,,,,,,,,,,,,,,,,,,,,,,,,,test1,001,2023-04-02_20h13.22.629,exp,2022.2.5,None,
74.0,l1,f,en,na,../audio/074.wav,,l1_f_en_na_074,,,,,,,../image/boy.png,../image/woman.png,boy,,1,boy,woman,boy,woman,l,None,,,,,,,,,,0,15,15,13,,,,,,,,,,,,,,,,,,,,,,,,,,,,,45.47485229199992,45.47485229199992,45.47485229199992,46.457801291667025,['rshift'],[1.2179437079998934],,,,,,,,,,,,,,,,,,,,,,,,,,test1,001,2023-04-02_20h13.22.629,exp,2022.2.5,None,
132.0,l1,t,es,f0u,../audio/132.wav,,l1_t_es_f0u_132,,,,,,,../image/car.png,../image/grandma.png,grandma,,1,grandma,car,car,grandma,r,None,,,,,,,,,,0,16,16,46,,,,,,,,,,,,,,,,,,,,,,,,,,,,,46.72590949999994,46.72590949999994,46.72590949999994,47.70793095866681,['lshift'],[1.1924804989998847],,,,,,,,,,,,,,,,,,,,,,,,,,test1,001,2023-04-02_20h13.22.629,exp,2022.2.5,None,
17.0,l1,t,es,na,../audio/017.wav,,l1_t_es_na_017,,,,,,,../image/jug.png,../image/cat.png,jug,,1,jug,cat,jug,cat,l,None,,,,,,,,,,0,17,17,41,,,,,,,,,,,,,,,,,,,,,,,,,,,,,47.953955708000194,47.953955708000194,47.953955708000194,48.92927629166685,['rshift'],[1.1978629989998808],,,,,,,,,,,,,,,,,,,,,,,,,,test1,001,2023-04-02_20h13.22.629,exp,2022.2.5,None,
13.0,l1,t,es,na,../audio/013.wav,,l1_t_es_na_013,,,,,,,../image/beer.png,../image/wine.png,beer,,1,beer,wine,beer,wine,l,None,,,,,,,,,,0,18,18,37,,,,,,,,,,,,,,,,,,,,,,,,,,,,,49.190835249999964,49.190835249999964,49.190835249999964,50.174420833667014,['lshift'],[1.186184250000224],,,,,,,,,,,,,,,,,,,,,,,,,,test1,001,2023-04-02_20h13.22.629,exp,2022.2.5,None,
135.0,l1,t,es,f0u,../audio/135.wav,,l1_t_es_f0u_135,,,,,,,../image/flipflops.png,../image/flower.png,flipflops,,1,flipflops,flower,flipflops,flower,l,None,,,,,,,,,,0,19,19,49,,,,,,,,,,,,,,,,,,,,,,,,,,,,,50.407936125000106,50.407936125000106,50.407936125000106,51.39116349966686,['rshift'],[1.1978010829998311],,,,,,,,,,,,,,,,,,,,,,,,,,test1,001,2023-04-02_20h13.22.629,exp,2022.2.5,None,
131.0,l1,t,es,f0u,../audio/131.wav,,l1_t_es_f0u_131,,,,,,,../image/cat.png,../image/flower.png,cat,,1,cat,flower,cat,flower,l,None,,,,,,,,,,0,20,20,45,,,,,,,,,,,,,,,,,,,,,,,,,,,,,51.639032957999916,51.639032957999916,51.639032957999916,52.612666916666754,['lshift'],[1.177755457999865],,,,,,,,,,,,,,,,,,,,,,,,,,test1,001,2023-04-02_20h13.22.629,exp,2022.2.5,None,
65.0,l1,f,en,na,../audio/065.wav,,l1_f_en_na_065,,,,,,,../image/computer.png,../image/book.png,book,,1,book,computer,computer,book,r,None,,,,,,,,,,0,21,21,4,,,,,,,,,,,,,,,,,,,,,,,,,,,,,52.85856062500034,52.85856062500034,52.85856062500034,53.84123799966689,['rshift'],[1.1841582500001095],,,,,,,,,,,,,,,,,,,,,,,,,,test1,001,2023-04-02_20h13.22.629,exp,2022.2.5,None,
72.0,l1,f,en,na,../audio/072.wav,,l1_f_en_na_072,,,,,,,../image/dog.png,../image/fish.png,dog,,1,dog,fish,dog,fish,l,None,,,,,,,,,,0,22,22,11,,,,,,,,,,,,,,,,,,,,,,,,,,,,,54.073244875,54.073244875,54.073244875,55.05780070866673,['lshift'],[1.2272770409999794],,,,,,,,,,,,,,,,,,,,,,,,,,test1,001,2023-04-02_20h13.22.629,exp,2022.2.5,None,
66.0,l1,f,en,na,../audio/066.wav,,l1_f_en_na_066,,,,,,,../image/bag.png,../image/scarf.png,bag,,1,bag,scarf,bag,scarf,l,None,,,,,,,,,,0,23,23,5,,,,,,,,,,,,,,,,,,,,,,,,,,,,,55.33829616699995,55.33829616699995,55.33829616699995,56.3125174586669,['rshift'],[1.2338033330001963],,,,,,,,,,,,,,,,,,,,,,,,,,test1,001,2023-04-02_20h13.22.629,exp,2022.2.5,None,
12.0,l1,t,es,na,../audio/012.wav,,l1_t_es_na_012,,,,,,,../image/newspaper.png,../image/book.png,book,,1,book,newspaper,newspaper,book,r,None,,,,,,,,,,0,24,24,36,,,,,,,,,,,,,,,,,,,,,,,,,,,,,56.606807749999916,56.606807749999916,56.606807749999916,57.57926216666671,['lshift'],[1.1938916670001163],,,,,,,,,,,,,,,,,,,,,,,,,,test1,001,2023-04-02_20h13.22.629,exp,2022.2.5,None,
73.0,l1,f,en,na,../audio/073.wav,,l1_f_en_na_073,,,,,,,../image/socks.png,../image/tshirt.png,tshirt,,1,tshirt,socks,socks,tshirt,r,None,,,,,,,,,,0,25,25,12,,,,,,,,,,,,,,,,,,,,,,,,,,,,,57.84053095800027,57.84053095800027,57.84053095800027,58.82450741666686,['rshift'],[1.1924409580001338],,,,,,,,,,,,,,,,,,,,,,,,,,test1,001,2023-04-02_20h13.22.629,exp,2022.2.5,None,
94.0,l1,f,sp,na,../audio/094.wav,,l1_f_sp_na_094,,,,,,,../image/beer.png,../image/horchata.png,beer,,1,beer,horchata,beer,horchata,l,None,,,,,,,,,,0,26,26,33,,,,,,,,,,,,,,,,,,,,,,,,,,,,,59.072717167000064,59.072717167000064,59.072717167000064,60.057816874666756,['lshift'],[1.2038945829999648],,,,,,,,,,,,,,,,,,,,,,,,,,test1,001,2023-04-02_20h13.22.629,exp,2022.2.5,None,
81.0,l1,f,se,na,../audio/081.wav,,l1_f_se_na_081,,,,,,,../image/boxers.png,../image/sweatpants.png,sweatpants,,1,sweatpants,boxers,boxers,sweatpants,r,None,,,,,,,,,,0,27,27,20,,,,,,,,,,,,,,,,,,,,,,,,,,,,,60.30753666700002,60.30753666700002,60.30753666700002,61.291017208666986,['rshift'],[1.239252917000158],,,,,,,,,,,,,,,,,,,,,,,,,,test1,001,2023-04-02_20h13.22.629,exp,2022.2.5,None,
139.0,l1,t,es,f0u,../audio/139.wav,,l1_t_es_f0u_139,,,,,,,../image/restaurant.png,../image/hotel.png,restaurant,,1,restaurant,hotel,restaurant,hotel,l,None,,,,,,,,,,0,28,28,53,,,,,,,,,,,,,,,,,,,,,,,,,,,,,61.59107975000006,61.59107975000006,61.59107975000006,62.5620467086667,['lshift'],[1.2053042500001538],,,,,,,,,,,,,,,,,,,,,,,,,,test1,001,2023-04-02_20h13.22.629,exp,2022.2.5,None,
64.0,l1,f,en,na,../audio/064.wav,,l1_f_en_na_064,,,,,,,../image/wallet.png,../image/key.png,wallet,,1,wallet,key,wallet,key,l,None,,,,,,,,,,0,29,29,3,,,,,,,,,,,,,,,,,,,,,,,,,,,,,62.84191008300013,62.84191008300013,62.84191008300013,63.82456091666678,['rshift'],[1.2419017490001352],,,,,,,,,,,,,,,,,,,,,,,,,,test1,001,2023-04-02_20h13.22.629,exp,2022.2.5,None,
82.0,l1,f,se,na,../audio/082.wav,,l1_f_se_na_082,,,,,,,../image/mickeymouse.png,../image/spongebob.png,mickeymouse,,1,mickeymouse,spongebob,mickeymouse,spongebob,l,None,,,,,,,,,,0,30,30,21,,,,,,,,,,,,,,,,,,,,,,,,,,,,,64.12275387499994,64.12275387499994,64.12275387499994,65.10781766666675,['lshift'],[1.1863612080001076],,,,,,,,,,,,,,,,,,,,,,,,,,test1,001,2023-04-02_20h13.22.629,exp,2022.2.5,None,
20.0,l1,t,es,na,../audio/020.wav,,l1_t_es_na_020,,,,,,,../image/cellphone.png,../image/backpack.png,backpack,,1,backpack,cellphone,cellphone,backpack,r,None,,,,,,,,,,0,31,31,44,,,,,,,,,,,,,,,,,,,,,,,,,,,,,65.34457337499998,65.34457337499998,65.34457337499998,66.32430420866673,['rshift'],[1.2261417079998864],,,,,,,,,,,,,,,,,,,,,,,,,,test1,001,2023-04-02_20h13.22.629,exp,2022.2.5,None,
15.0,l1,t,es,na,../audio/015.wav,,l1_t_es_na_015,,,,,,,../image/glasses.png,../image/jacket.png,glasses,,1,glasses,jacket,glasses,jacket,l,None,,,,,,,,,,0,32,32,39,,,,,,,,,,,,,,,,,,,,,,,,,,,,,66.60405125000034,66.60405125000034,66.60405125000034,67.591063708667,['lshift'],[1.2054269579998618],,,,,,,,,,,,,,,,,,,,,,,,,,test1,001,2023-04-02_20h13.22.629,exp,2022.2.5,None,
91.0,l1,f,sp,na,../audio/091.wav,,l1_f_sp_na_091,,,,,,,../image/backpack.png,../image/bracelet.png,bracelet,,1,bracelet,backpack,backpack,bracelet,r,None,,,,,,,,,,0,33,33,30,,,,,,,,,,,,,,,,,,,,,,,,,,,,,67.84427058300025,67.84427058300025,67.84427058300025,68.82341508366677,['rshift'],[1.2222573750000265],,,,,,,,,,,,,,,,,,,,,,,,,,test1,001,2023-04-02_20h13.22.629,exp,2022.2.5,None,
83.0,l1,f,se,na,../audio/083.wav,,l1_f_se_na_083,,,,,,,../image/donut.png,../image/burger.png,burger,,1,burger,donut,donut,burger,r,None,,,,,,,,,,0,34,34,22,,,,,,,,,,,,,,,,,,,,,,,,,,,,,69.11430633300006,69.11430633300006,69.11430633300006,70.09104620866698,['lshift'],[1.1805337490000056],,,,,,,,,,,,,,,,,,,,,,,,,,test1,001,2023-04-02_20h13.22.629,exp,2022.2.5,None,
95.0,l1,f,sp,na,../audio/095.wav,,l1_f_sp_na_095,,,,,,,../image/socks.png,../image/key.png,key,,1,key,socks,socks,key,r,None,,,,,,,,,,0,35,35,34,,,,,,,,,,,,,,,,,,,,,,,,,,,,,70.32879841700014,70.32879841700014,70.32879841700014,71.30700820866674,['rshift'],[1.2139824169998974],,,,,,,,,,,,,,,,,,,,,,,,,,test1,001,2023-04-02_20h13.22.629,exp,2022.2.5,None,
71.0,l1,f,en,na,../audio/071.wav,,l1_f_en_na_071,,,,,,,../image/wallet.png,../image/plane.png,plane,,1,plane,wallet,wallet,plane,r,None,,,,,,,,,,0,36,36,10,,,,,,,,,,,,,,,,,,,,,,,,,,,,,71.57674583300013,71.57674583300013,71.57674583300013,72.55769262466698,['lshift'],[1.2496606660001817],,,,,,,,,,,,,,,,,,,,,,,,,,test1,001,2023-04-02_20h13.22.629,exp,2022.2.5,None,
89.0,l1,f,sp,na,../audio/089.wav,,l1_f_sp_na_089,,,,,,,../image/bed.png,../image/wallet.png,wallet,,1,wallet,bed,bed,wallet,r,None,,,,,,,,,,0,37,37,28,,,,,,,,,,,,,,,,,,,,,,,,,,,,,72.85977812500005,72.85977812500005,72.85977812500005,73.84109674966682,['rshift'],[1.2244072909998067],,,,,,,,,,,,,,,,,,,,,,,,,,test1,001,2023-04-02_20h13.22.629,exp,2022.2.5,None,
138.0,l1,t,es,f0u,../audio/138.wav,,l1_t_es_f0u_138,,,,,,,../image/pants.png,../image/shirt.png,shirt,,1,shirt,pants,pants,shirt,r,None,,,,,,,,,,0,38,38,52,,,,,,,,,,,,,,,,,,,,,,,,,,,,,74.1205667080003,74.1205667080003,74.1205667080003,75.10772045866703,['lshift'],[1.2251044160002493],,,,,,,,,,,,,,,,,,,,,,,,,,test1,001,2023-04-02_20h13.22.629,exp,2022.2.5,None,
70.0,l1,f,en,na,../audio/070.wav,,l1_f_en_na_070,,,,,,,../image/computer.png,../image/bed.png,computer,,1,computer,bed,computer,bed,l,None,,,,,,,,,,0,39,39,9,,,,,,,,,,,,,,,,,,,,,,,,,,,,,75.37939258300003,75.37939258300003,75.37939258300003,76.35768066666675,['rshift'],[1.2472607499998958],,,,,,,,,,,,,,,,,,,,,,,,,,test1,001,2023-04-02_20h13.22.629,exp,2022.2.5,None,
16.0,l1,t,es,na,../audio/016.wav,,l1_t_es_na_016,,,,,,,../image/flipflops.png,../image/bag.png,bag,,1,bag,flipflops,flipflops,bag,r,None,,,,,,,,,,0,40,40,40,,,,,,,,,,,,,,,,,,,,,,,,,,,,,76.65762025000004,76.65762025000004,76.65762025000004,77.6411444996668,['lshift'],[1.2250359580002623],,,,,,,,,,,,,,,,,,,,,,,,,,test1,001,2023-04-02_20h13.22.629,exp,2022.2.5,None,
90.0,l1,f,sp,na,../audio/090.wav,,l1_f_sp_na_090,,,,,,,../image/bag.png,../image/bottle.png,bag,,1,bag,bottle,bag,bottle,l,None,,,,,,,,,,0,41,41,29,,,,,,,,,,,,,,,,,,,,,,,,,,,,,77.92006079200019,77.92006079200019,77.92006079200019,78.90778766666678,['rshift'],[1.224221542000123],,,,,,,,,,,,,,,,,,,,,,,,,,test1,001,2023-04-02_20h13.22.629,exp,2022.2.5,None,
79.0,l1,f,se,na,../audio/079.wav,,l1_f_se_na_079,,,,,,,../image/sweatpants.png,../image/jeans.png,jeans,,1,jeans,sweatpants,sweatpants,jeans,r,None,,,,,,,,,,0,42,42,18,,,,,,,,,,,,,,,,,,,,,,,,,,,,,79.1752727080002,79.1752727080002,79.1752727080002,80.15760304166703,['lshift'],[1.2018322489998354],,,,,,,,,,,,,,,,,,,,,,,,,,test1,001,2023-04-02_20h13.22.629,exp,2022.2.5,None,
86.0,l1,f,sp,na,../audio/086.wav,,l1_f_sp_na_086,,,,,,,../image/plates.png,../image/glasses.png,plates,,1,plates,glasses,plates,glasses,l,None,,,,,,,,,,0,43,43,25,,,,,,,,,,,,,,,,,,,,,,,,,,,,,80.40727354199998,80.40727354199998,80.40727354199998,81.3909578336668,['rshift'],[1.2771182490000683],,,,,,,,,,,,,,,,,,,,,,,,,,test1,001,2023-04-02_20h13.22.629,exp,2022.2.5,None,
84.0,l1,f,se,na,../audio/084.wav,,l1_f_se_na_084,,,,,,,../image/penthouse.png,../image/rocket.png,penthouse,,1,penthouse,rocket,penthouse,rocket,l,None,,,,,,,,,,0,44,44,23,,,,,,,,,,,,,,,,,,,,,,,,,,,,,81.72481187500034,81.72481187500034,81.72481187500034,82.70759383366682,['lshift'],[1.2024000410001463],,,,,,,,,,,,,,,,,,,,,,,,,,test1,001,2023-04-02_20h13.22.629,exp,2022.2.5,None,
80.0,l1,f,se,na,../audio/080.wav,,l1_f_se_na_080,,,,,,,../image/mouse.png,../image/rat.png,mouse,,1,mouse,rat,mouse,rat,l,None,,,,,,,,,,0,45,45,19,,,,,,,,,,,,,,,,,,,,,,,,,,,,,82.95636170800026,82.95636170800026,82.95636170800026,83.94096329166702,['rshift'],[1.2949899160003042],,,,,,,,,,,,,,,,,,,,,,,,,,test1,001,2023-04-02_20h13.22.629,exp,2022.2.5,None,
77.0,l1,f,se,na,../audio/077.wav,,l1_f_se_na_077,,,,,,,../image/mashedpotatoes.png,../image/donut.png,donut,,1,donut,mashedpotatoes,mashedpotatoes,donut,r,None,,,,,,,,,,0,46,46,16,,,,,,,,,,,,,,,,,,,,,,,,,,,,,84.28674137500002,84.28674137500002,84.28674137500002,85.27420691666681,['lshift'],[1.2297733750001498],,,,,,,,,,,,,,,,,,,,,,,,,,test1,001,2023-04-02_20h13.22.629,exp,2022.2.5,None,
68.0,l1,f,en,na,../audio/068.wav,,l1_f_en_na_068,,,,,,,../image/socks.png,../image/book.png,socks,,1,socks,book,socks,book,l,None,,,,,,,,,,0,47,47,7,,,,,,,,,,,,,,,,,,,,,,,,,,,,,85.55572916700021,85.55572916700021,85.55572916700021,86.52937091666696,['rshift'],[1.221479833000103],,,,,,,,,,,,,,,,,,,,,,,,,,test1,001,2023-04-02_20h13.22.629,exp,2022.2.5,None,
67.0,l1,f,en,na,../audio/067.wav,,l1_f_en_na_067,,,,,,,../image/beer.png,../image/glasses.png,glasses,,1,glasses,beer,beer,glasses,r,None,,,,,,,,,,0,48,48,6,,,,,,,,,,,,,,,,,,,,,,,,,,,,,86.80600804200003,86.80600804200003,86.80600804200003,87.79100087466692,['lshift'],[1.2042392080002173],,,,,,,,,,,,,,,,,,,,,,,,,,test1,001,2023-04-02_20h13.22.629,exp,2022.2.5,None,
92.0,l1,f,sp,na,../audio/092.wav,,l1_f_sp_na_092,,,,,,,../image/armchair.png,../image/dog.png,armchair,,1,armchair,dog,armchair,dog,l,None,,,,,,,,,,0,49,49,31,,,,,,,,,,,,,,,,,,,,,,,,,,,,,88.0501327500001,88.0501327500001,88.0501327500001,89.02430666666693,['rshift'],[1.2264791669999795],,,,,,,,,,,,,,,,,,,,,,,,,,test1,001,2023-04-02_20h13.22.629,exp,2022.2.5,None,
69.0,l1,f,en,na,../audio/069.wav,,l1_f_en_na_069,,,,,,,../image/bag.png,../image/shirt.png,shirt,,1,shirt,bag,bag,shirt,r,None,,,,,,,,,,0,50,50,8,,,,,,,,,,,,,,,,,,,,,,,,,,,,,89.3039657080003,89.3039657080003,89.3039657080003,90.29118212466689,['lshift'],[1.222567958000127],,,,,,,,,,,,,,,,,,,,,,,,,,test1,001,2023-04-02_20h13.22.629,exp,2022.2.5,None,
140.0,l1,t,es,f0u,../audio/140.wav,,l1_t_es_f0u_140,,,,,,,../image/ring.png,../image/bracelet.png,bracelet,,1,bracelet,ring,ring,bracelet,r,None,,,,,,,,,,0,51,51,54,,,,,,,,,,,,,,,,,,,,,,,,,,,,,90.5565915420002,90.5565915420002,90.5565915420002,91.54087308366685,['rshift'],[1.230513374000111],,,,,,,,,,,,,,,,,,,,,,,,,,test1,001,2023-04-02_20h13.22.629,exp,2022.2.5,None,
18.0,l1,t,es,na,../audio/018.wav,,l1_t_es_na_018,,,,,,,../image/cups.png,../image/napkins.png,napkins,,1,napkins,cups,cups,napkins,r,None,,,,,,,,,,0,52,52,42,,,,,,,,,,,,,,,,,,,,,,,,,,,,,91.82357916699993,91.82357916699993,91.82357916699993,92.80747395866662,['lshift'],[1.2191582919999746],,,,,,,,,,,,,,,,,,,,,,,,,,test1,001,2023-04-02_20h13.22.629,exp,2022.2.5,None,
75.0,l1,f,en,na,../audio/075.wav,,l1_f_en_na_075,,,,,,,../image/dog.png,../image/fish.png,fish,,1,fish,dog,dog,fish,r,None,,,,,,,,,,0,53,53,14,,,,,,,,,,,,,,,,,,,,,,,,,,,,,93.07520170800035,93.07520170800035,93.07520170800035,94.05758379166697,['rshift'],[1.2410924579999119],,,,,,,,,,,,,,,,,,,,,,,,,,test1,001,2023-04-02_20h13.22.629,exp,2022.2.5,None,
14.0,l1,t,es,na,../audio/014.wav,,l1_t_es_na_014,,,,,,,../image/book.png,../image/key.png,key,,1,key,book,book,key,r,None,,,,,,,,,,0,54,54,38,,,,,,,,,,,,,,,,,,,,,,,,,,,,,94.35570795800004,94.35570795800004,94.35570795800004,95.34097599966687,['lshift'],[1.305595207999886],,,,,,,,,,,,,,,,,,,,,,,,,,test1,001,2023-04-02_20h13.22.629,exp,2022.2.5,None,
,,,,,,,,,,,,,,,,,,,,,,,,,,,,,,,,,,,,,,,,,,,,,,,,,,,,,,,,,,,,,,,,,,,,,,,,95.68393845800028,95.68393845800028,space,2.7313621250000324,,,,,,,,,,,,,,,,,,,,,,test1,001,2023-04-02_20h13.22.629,exp,2022.2.5,None,
tr1,lt,tr,en,na,../practice_trial/audio/tr1.wav,Where are your kids?,lt_tr_en_na_tr1,-,-,-,-,-,-,../image/america.png,../image/spain.png,,,,,,,,,,,,,,,,,,,,,,,0,0,0,0,0,0,0,0,,,,,,,,,,,,,,,,,,,,,,,,,,,,,,,98.43137816700028,99.43063704199994,99.43063704199994,99.43063704199994,100.40753387466681,['lshift'],[1.4553924580004605],,,,,,,,,,,,,,,test1,001,2023-04-02_20h13.22.629,exp,2022.2.5,None,
tr2,lt,tr,en,na,../practice_trial/audio/tr2.wav,Who is buying my car?,lt_tr_en_na_tr2,-,-,-,-,-,-,../image/america.png,../image/spain.png,,,,,,,,,,,,,,,,,,,,,,,0,0,0,0,0,1,1,1,,,,,,,,,,,,,,,,,,,,,,,,,,,,,,,,100.91984370799992,100.91984370799992,100.91984370799992,101.90756766666688,['rshift'],[1.422132541999872],,,,,,,,,,,,,,,test1,001,2023-04-02_20h13.22.629,exp,2022.2.5,None,
tr3,lt,tr,sp,na,../practice_trial/audio/tr3.wav,¿Dónde está mi perro?,lt_tr_sp_na_tr3,-,-,-,-,-,-,../image/america.png,../image/spain.png,,,,,,,,,,,,,,,,,,,,,,,0,0,0,0,0,2,2,2,,,,,,,,,,,,,,,,,,,,,,,,,,,,,,,,102.36720687500019,102.36720687500019,102.36720687500019,103.35764224966694,['lshift'],[1.3917795410002327],,,,,,,,,,,,,,,test1,001,2023-04-02_20h13.22.629,exp,2022.2.5,None,
tr4,lt,tr,sp,na,../practice_trial/audio/tr4.wav,¿De quién es la bolsa?,lt_tr_sp_na_tr4,-,-,-,-,-,-,../image/america.png,../image/spain.png,,,,,,,,,,,,,,,,,,,,,,,0,0,0,0,0,3,3,3,,,,,,,,,,,,,,,,,,,,,,,,,,,,,,,,103.78335508300006,103.78335508300006,103.78335508300006,104.77429508366664,['rshift'],[1.3590473750000456],,,,,,,,,,,,,,,test1,001,2023-04-02_20h13.22.629,exp,2022.2.5,None,
tr5,lt,tr,se,na,../practice_trial/audio/tr5.wav,¿Dónde encontraste sus donuts?,lt_tr_se_na_tr5,-,-,-,-,-,-,../image/america.png,../image/spain.png,,,,,,,,,,,,,,,,,,,,,,,0,0,0,0,0,4,4,4,,,,,,,,,,,,,,,,,,,,,,,,,,,,,,,,105.17078366700025,105.17078366700025,105.17078366700025,106.15740129166694,['lshift'],[1.4053382499996587],,,,,,,,,,,,,,,test1,001,2023-04-02_20h13.22.629,exp,2022.2.5,None,
tr6,lt,tr,se,na,../practice_trial/audio/tr6.wav,¿Cuándo compraste tu sweater?,lt_tr_se_na_tr6,-,-,-,-,-,-,../image/america.png,../image/spain.png,,,,,,,,,,,,,,,,,,,,,,,0,0,0,0,0,5,5,5,,,,,,,,,,,,,,,,,,,,,,,,,,,,,,,,106.60362350000014,106.60362350000014,106.60362350000014,107.59080816666689,['rshift'],[1.3898337499999798],,,,,,,,,,,,,,,test1,001,2023-04-02_20h13.22.629,exp,2022.2.5,None,
tr7,lt,tr,es,na,../practice_trial/audio/tr7.wav,Why do you have my camisa?,lt_tr_es_na_tr7,-,-,-,-,-,-,../image/america.png,../image/spain.png,,,,,,,,,,,,,,,,,,,,,,,0,0,0,0,0,6,6,6,,,,,,,,,,,,,,,,,,,,,,,,,,,,,,,,108.01712508300034,108.01712508300034,108.01712508300034,109.00749529166684,['lshift'],[1.3883523330000571],,,,,,,,,,,,,,,test1,001,2023-04-02_20h13.22.629,exp,2022.2.5,None,
tr8,lt,tr,es,na,../practice_trial/audio/tr8.wav,Where did you find his chanclas?,lt_tr_es_na_tr8,-,-,-,-,-,-,../image/america.png,../image/spain.png,,,,,,,,,,,,,,,,,,,,,,,0,0,0,0,0,7,7,7,,,,,,,,,,,,,,,,,,,,,,,,,,,,,,,,109.43429691700021,109.43429691700021,109.43429691700021,110.42405629166684,['rshift'],[1.3469564160000118],,,,,,,,,,,,,,,test1,001,2023-04-02_20h13.22.629,exp,2022.2.5,None,
,,,,,,,,,,,,,,,,,,,,,,,,,,,,,,,,,,,,,,0,0,0,0,,,,,,,,,,,,,,,,,,,,,,,,,,,,,,,,,,,,,,,,,,110.80379041700007,110.80379041700007,,,,,,,,,,,,,test1,001,2023-04-02_20h13.22.629,exp,2022.2.5,None,
,,,,,,,,,,,,,,,,,,,,,,,,,,,,,,,,,,,,,,,,,,,,,,,,,,,,,,,,,,,,,,,,,,,,,,,,,,,,,,,,,,,,,112.57311425000034,112.57311425000034,rshift,1.3854979579996325,,,,,,,,,test1,001,2023-04-02_20h13.22.629,exp,2022.2.5,None,
127.0,l2,f,sp,na,../audio/127.wav,,l2_f_sp_na_127,,,,,,,../image/america.png,../image/spain.png,,,2,america,spain,,,,,None,,,,,,,,,,,,,,,,,,,,,0,0,0,31,,,,,,,,,,,,,,,,,,,,,,,,,,,,,,,,,,,,,,,,114.00292495800022,114.96116004166676,['lshift'],[1.3492794999997386],,,,,test1,001,2023-04-02_20h13.22.629,exp,2022.2.5,None,
163.0,l2,t,es,f0c,../audio/163.wav,,l2_t_es_f0c_163,,,,,,,../image/america.png,../image/spain.png,,,2,america,spain,,,,,1,,,,,,,,,,,,,,,,,,,,,0,1,1,47,,,,,,,,,,,,,,,,,,,,,,,,,,,,,,,,,,,,,,,,118.98411824999994,119.96159649966673,"['rshift', 'lshift']","[1.8020194160003484, 2.4776955830002407]",,,,,test1,001,2023-04-02_20h13.22.629,exp,2022.2.5,None,
112.0,l2,f,se,na,../audio/112.wav,,l2_f_se_na_112,,,,,,,../image/america.png,../image/spain.png,,,2,america,spain,,,,,1,,,,,,,,,,,,,,,,,,,,,0,2,2,16,,,,,,,,,,,,,,,,,,,,,,,,,,,,,,,,,,,,,,,,123.99436241700005,124.96210083366692,"['lshift', 'rshift']","[1.4268402910001896, 2.104084748999867]",,,,,test1,001,2023-04-02_20h13.22.629,exp,2022.2.5,None,
113.0,l2,f,se,na,../audio/113.wav,,l2_f_se_na_113,,,,,,,../image/america.png,../image/spain.png,,,2,america,spain,,,,,1,,,,,,,,,,,,,,,,,,,,,0,3,3,17,,,,,,,,,,,,,,,,,,,,,,,,,,,,,,,,,,,,,,,,128.9948937080003,129.9613597086666,"['rshift', 'lshift']","[1.747589708000305, 2.056147833000068]",,,,,test1,001,2023-04-02_20h13.22.629,exp,2022.2.5,None,
119.0,l2,f,se,na,../audio/119.wav,,l2_f_se_na_119,,,,,,,../image/america.png,../image/spain.png,,,2,america,spain,,,,,1,,,,,,,,,,,,,,,,,,,,,0,4,4,23,,,,,,,,,,,,,,,,,,,,,,,,,,,,,,,,,,,,,,,,133.99444033300006,134.96195258366677,"['rshift', 'lshift']","[1.7536774159998458, 2.3727176659999714]",,,,,test1,001,2023-04-02_20h13.22.629,exp,2022.2.5,None,
161.0,l2,t,es,f0c,../audio/161.wav,,l2_t_es_f0c_161,,,,,,,../image/america.png,../image/spain.png,,,2,america,spain,,,,,1,,,,,,,,,,,,,,,,,,,,,0,5,5,45,,,,,,,,,,,,,,,,,,,,,,,,,,,,,,,,,,,,,,,,138.99603350000007,139.961539541667,"['rshift', 'lshift']","[1.596757332999914, 1.93680008299998]",,,,,test1,001,2023-04-02_20h13.22.629,exp,2022.2.5,None,
165.0,l2,t,es,f0c,../audio/165.wav,,l2_t_es_f0c_165,,,,,,,../image/america.png,../image/spain.png,,,2,america,spain,,,,,1,,,,,,,,,,,,,,,,,,,,,0,6,6,49,,,,,,,,,,,,,,,,,,,,,,,,,,,,,,,,,,,,,,,,144.00046383300014,144.9622467916668,"['lshift', 'rshift']","[1.6086707079998632, 2.3348259999997936]",,,,,test1,001,2023-04-02_20h13.22.629,exp,2022.2.5,None,
130.0,l2,f,sp,na,../audio/130.wav,,l2_f_sp_na_130,,,,,,,../image/america.png,../image/spain.png,,,2,america,spain,,,,,None,,,,,,,,,,,,,,,,,,,,,0,7,7,34,,,,,,,,,,,,,,,,,,,,,,,,,,,,,,,,,,,,,,,,148.9963747500001,149.96129183366682,"['rshift', 'lshift', 'rshift']","[1.6898363330001303, 2.415956916000141, 3.1174744160002774]",,,,,test1,001,2023-04-02_20h13.22.629,exp,2022.2.5,None,
121.0,l2,f,sp,na,../audio/121.wav,,l2_f_sp_na_121,,,,,,,../image/america.png,../image/spain.png,,,2,america,spain,,,,,None,,,,,,,,,,,,,,,,,,,,,0,8,8,25,,,,,,,,,,,,,,,,,,,,,,,,,,,,,,,,,,,,,,,,153.99826116700024,154.9614542916668,['rshift'],[2.498733500000071],,,,,test1,001,2023-04-02_20h13.22.629,exp,2022.2.5,None,
117.0,l2,f,se,na,../audio/117.wav,,l2_f_se_na_117,,,,,,,../image/america.png,../image/spain.png,,,2,america,spain,,,,,1,,,,,,,,,,,,,,,,,,,,,0,9,9,21,,,,,,,,,,,,,,,,,,,,,,,,,,,,,,,,,,,,,,,,158.994433458,159.96145079166698,"['rshift', 'lshift']","[1.6113160410000091, 2.4781025830002363]",,,,,test1,001,2023-04-02_20h13.22.629,exp,2022.2.5,None,
128.0,l2,f,sp,na,../audio/128.wav,,l2_f_sp_na_128,,,,,,,../image/america.png,../image/spain.png,,,2,america,spain,,,,,None,,,,,,,,,,,,,,,,,,,,,0,10,10,32,,,,,,,,,,,,,,,,,,,,,,,,,,,,,,,,,,,,,,,,163.981798583,164.96139929166682,['rshift'],[1.4938945410003726],,,,,test1,001,2023-04-02_20h13.22.629,exp,2022.2.5,None,
123.0,l2,f,sp,na,../audio/123.wav,,l2_f_sp_na_123,,,,,,,../image/america.png,../image/spain.png,,,2,america,spain,,,,,None,,,,,,,,,,,,,,,,,,,,,0,11,11,27,,,,,,,,,,,,,,,,,,,,,,,,,,,,,,,,,,,,,,,,168.98549575000015,169.97377624966683,"['rshift', 'lshift']","[1.753218249999918, 2.343445999999858]",,,,,test1,001,2023-04-02_20h13.22.629,exp,2022.2.5,None,
100.0,l2,f,en,na,../audio/100.wav,,l2_f_en_na_100,,,,,,,../image/america.png,../image/spain.png,,,2,america,spain,,,,,None,,,,,,,,,,,,,,,,,,,,,0,12,12,4,,,,,,,,,,,,,,,,,,,,,,,,,,,,,,,,,,,,,,,,173.99490333300037,174.9615238336667,['rshift'],[2.847117457999957],,,,,test1,001,2023-04-02_20h13.22.629,exp,2022.2.5,None,
22.0,l2,t,es,na,../audio/022.wav,,l2_t_es_na_022,,,,,,,../image/america.png,../image/spain.png,,,2,america,spain,,,,,1,,,,,,,,,,,,,,,,,,,,,0,13,13,36,,,,,,,,,,,,,,,,,,,,,,,,,,,,,,,,,,,,,,,,178.99671508300025,179.9610712086667,"['lshift', 'rshift']","[1.5697588330003782, 2.348332333000144]",,,,,test1,001,2023-04-02_20h13.22.629,exp,2022.2.5,None,
104.0,l2,f,en,na,../audio/104.wav,,l2_f_en_na_104,,,,,,,../image/america.png,../image/spain.png,,,2,america,spain,,,,,None,,,,,,,,,,,,,,,,,,,,,0,14,14,8,,,,,,,,,,,,,,,,,,,,,,,,,,,,,,,,,,,,,,,,183.98646045800024,184.97374195866703,['lshift'],[1.4110779160000675],,,,,test1,001,2023-04-02_20h13.22.629,exp,2022.2.5,None,
122.0,l2,f,sp,na,../audio/122.wav,,l2_f_sp_na_122,,,,,,,../image/america.png,../image/spain.png,,,2,america,spain,,,,,None,,,,,,,,,,,,,,,,,,,,,0,15,15,26,,,,,,,,,,,,,,,,,,,,,,,,,,,,,,,,,,,,,,,,188.99405470800002,189.96133991666673,"['lshift', 'rshift', 'lshift', 'rshift']","[1.9045472909997443, 2.2032076239997878, 3.08698824899966, 3.734461124000063]",,,,,test1,001,2023-04-02_20h13.22.629,exp,2022.2.5,None,
96.0,l2,f,en,na,../audio/096.wav,,l2_f_en_na_096,,,,,,,../image/america.png,../image/spain.png,,,2,america,spain,,,,,None,,,,,,,,,,,,,,,,,,,,,0,16,16,0,,,,,,,,,,,,,,,,,,,,,,,,,,,,,,,,,,,,,,,,193.99537879200034,194.9618542496667,['lshift'],[2.5183725830002004],,,,,test1,001,2023-04-02_20h13.22.629,exp,2022.2.5,None,
101.0,l2,f,en,na,../audio/101.wav,,l2_f_en_na_101,,,,,,,../image/america.png,../image/spain.png,,,2,america,spain,,,,,None,,,,,,,,,,,,,,,,,,,,,0,17,17,5,,,,,,,,,,,,,,,,,,,,,,,,,,,,,,,,,,,,,,,,198.99570204200018,199.97357241666694,['lshift'],[1.6339997489999405],,,,,test1,001,2023-04-02_20h13.22.629,exp,2022.2.5,None,
169.0,l2,t,es,f0c,../audio/169.wav,,l2_t_es_f0c_169,,,,,,,../image/america.png,../image/spain.png,,,2,america,spain,,,,,1,,,,,,,,,,,,,,,,,,,,,0,18,18,53,,,,,,,,,,,,,,,,,,,,,,,,,,,,,,,,,,,,,,,,203.99359766700036,204.96113083366689,"['lshift', 'rshift']","[1.566230207999979, 2.5231445829999757]",,,,,test1,001,2023-04-02_20h13.22.629,exp,2022.2.5,None,
107.0,l2,f,en,na,../audio/107.wav,,l2_f_en_na_107,,,,,,,../image/america.png,../image/spain.png,,,2,america,spain,,,,,None,,,,,,,,,,,,,,,,,,,,,0,19,19,11,,,,,,,,,,,,,,,,,,,,,,,,,,,,,,,,,,,,,,,,208.99464420799995,209.97349999966698,['lshift'],[1.7201050829999076],,,,,test1,001,2023-04-02_20h13.22.629,exp,2022.2.5,None,
110.0,l2,f,en,na,../audio/110.wav,,l2_f_en_na_110,,,,,,,../image/america.png,../image/spain.png,,,2,america,spain,,,,,None,,,,,,,,,,,,,,,,,,,,,0,20,20,14,,,,,,,,,,,,,,,,,,,,,,,,,,,,,,,,,,,,,,,,214.0002568750001,214.97288420866678,['lshift'],[1.747458166999877],,,,,test1,001,2023-04-02_20h13.22.629,exp,2022.2.5,None,
108.0,l2,f,en,na,../audio/108.wav,,l2_f_en_na_108,,,,,,,../image/america.png,../image/spain.png,,,2,america,spain,,,,,None,,,,,,,,,,,,,,,,,,,,,0,21,21,12,,,,,,,,,,,,,,,,,,,,,,,,,,,,,,,,,,,,,,,,218.99666775000014,219.96109224966702,['lshift'],[1.4122412080000686],,,,,test1,001,2023-04-02_20h13.22.629,exp,2022.2.5,None,
164.0,l2,t,es,f0c,../audio/164.wav,,l2_t_es_f0c_164,,,,,,,../image/america.png,../image/spain.png,,,2,america,spain,,,,,1,,,,,,,,,,,,,,,,,,,,,0,22,22,48,,,,,,,,,,,,,,,,,,,,,,,,,,,,,,,,,,,,,,,,223.9947832920002,224.96185633366693,"['lshift', 'rshift']","[1.354951957999674, 2.28309654099985]",,,,,test1,001,2023-04-02_20h13.22.629,exp,2022.2.5,None,
30.0,l2,t,es,na,../audio/030.wav,,l2_t_es_na_030,,,,,,,../image/america.png,../image/spain.png,,,2,america,spain,,,,,1,,,,,,,,,,,,,,,,,,,,,0,23,23,44,,,,,,,,,,,,,,,,,,,,,,,,,,,,,,,,,,,,,,,,228.986920458,229.96105766666668,"['lshift', 'rshift']","[1.4238417079995997, 2.5791791249998823]",,,,,test1,001,2023-04-02_20h13.22.629,exp,2022.2.5,None,
28.0,l2,t,es,na,../audio/028.wav,,l2_t_es_na_028,,,,,,,../image/america.png,../image/spain.png,,,2,america,spain,,,,,1,,,,,,,,,,,,,,,,,,,,,0,24,24,42,,,,,,,,,,,,,,,,,,,,,,,,,,,,,,,,,,,,,,,,233.99632324999993,234.96100495866702,"['lshift', 'rshift']","[1.4692817499999364, 2.3365822910000134]",,,,,test1,001,2023-04-02_20h13.22.629,exp,2022.2.5,None,
129.0,l2,f,sp,na,../audio/129.wav,,l2_f_sp_na_129,,,,,,,../image/america.png,../image/spain.png,,,2,america,spain,,,,,None,,,,,,,,,,,,,,,,,,,,,0,25,25,33,,,,,,,,,,,,,,,,,,,,,,,,,,,,,,,,,,,,,,,,238.99454270800015,239.96165187466684,"['lshift', 'rshift']","[1.4305804159998843, 2.0592877909998606]",,,,,test1,001,2023-04-02_20h13.22.629,exp,2022.2.5,None,
166.0,l2,t,es,f0c,../audio/166.wav,,l2_t_es_f0c_166,,,,,,,../image/america.png,../image/spain.png,,,2,america,spain,,,,,1,,,,,,,,,,,,,,,,,,,,,0,26,26,50,,,,,,,,,,,,,,,,,,,,,,,,,,,,,,,,,,,,,,,,243.99939050000012,244.97334091666679,"['lshift', 'rshift']","[2.3529264999997395, 2.9478385829997933]",,,,,test1,001,2023-04-02_20h13.22.629,exp,2022.2.5,None,
118.0,l2,f,se,na,../audio/118.wav,,l2_f_se_na_118,,,,,,,../image/america.png,../image/spain.png,,,2,america,spain,,,,,1,,,,,,,,,,,,,,,,,,,,,0,27,27,22,,,,,,,,,,,,,,,,,,,,,,,,,,,,,,,,,,,,,,,,248.99731816700023,249.97342058366692,"['lshift', 'rshift', 'rshift']","[1.894587415999922, 2.2608495409999705, 2.511215208000067]",,,,,test1,001,2023-04-02_20h13.22.629,exp,2022.2.5,None,
25.0,l2,t,es,na,../audio/025.wav,,l2_t_es_na_025,,,,,,,../image/america.png,../image/spain.png,,,2,america,spain,,,,,1,,,,,,,,,,,,,,,,,,,,,0,28,28,39,,,,,,,,,,,,,,,,,,,,,,,,,,,,,,,,,,,,,,,,253.99488279200023,254.960963249667,"['lshift', 'rshift']","[1.6346145000002252, 3.060395291000077]",,,,,test1,001,2023-04-02_20h13.22.629,exp,2022.2.5,None,
103.0,l2,f,en,na,../audio/103.wav,,l2_f_en_na_103,,,,,,,../image/america.png,../image/spain.png,,,2,america,spain,,,,,None,,,,,,,,,,,,,,,,,,,,,0,29,29,7,,,,,,,,,,,,,,,,,,,,,,,,,,,,,,,,,,,,,,,,258.99709595800005,259.9731929166667,['lshift'],[1.7953595419999147],,,,,test1,001,2023-04-02_20h13.22.629,exp,2022.2.5,None,
114.0,l2,f,se,na,../audio/114.wav,,l2_f_se_na_114,,,,,,,../image/america.png,../image/spain.png,,,2,america,spain,,,,,1,,,,,,,,,,,,,,,,,,,,,0,30,30,18,,,,,,,,,,,,,,,,,,,,,,,,,,,,,,,,,,,,,,,,263.99317012500023,264.97327345866665,"['rshift', 'lshift']","[1.6984396670000024, 3.090925208000044]",,,,,test1,001,2023-04-02_20h13.22.629,exp,2022.2.5,None,
162.0,l2,t,es,f0c,../audio/162.wav,,l2_t_es_f0c_162,,,,,,,../image/america.png,../image/spain.png,,,2,america,spain,,,,,1,,,,,,,,,,,,,,,,,,,,,0,31,31,46,,,,,,,,,,,,,,,,,,,,,,,,,,,,,,,,,,,,,,,,268.9943510830003,269.97310499966693,"['lshift', 'rshift']","[1.9254092500000297, 2.4772112910000033]",,,,,test1,001,2023-04-02_20h13.22.629,exp,2022.2.5,None,
26.0,l2,t,es,na,../audio/026.wav,,l2_t_es_na_026,,,,,,,../image/america.png,../image/spain.png,,,2,america,spain,,,,,1,,,,,,,,,,,,,,,,,,,,,0,32,32,40,,,,,,,,,,,,,,,,,,,,,,,,,,,,,,,,,,,,,,,,273.99437824999995,274.97230983366694,"['lshift', 'rshift']","[1.8476028750001205, 2.4884938330001205]",,,,,test1,001,2023-04-02_20h13.22.629,exp,2022.2.5,None,
27.0,l2,t,es,na,../audio/027.wav,,l2_t_es_na_027,,,,,,,../image/america.png,../image/spain.png,,,2,america,spain,,,,,1,,,,,,,,,,,,,,,,,,,,,0,33,33,41,,,,,,,,,,,,,,,,,,,,,,,,,,,,,,,,,,,,,,,,278.99459316699995,279.96112808366684,"['lshift', 'rshift']","[1.5675006250003207, 2.1759858330001407]",,,,,test1,001,2023-04-02_20h13.22.629,exp,2022.2.5,None,
168.0,l2,t,es,f0c,../audio/168.wav,,l2_t_es_f0c_168,,,,,,,../image/america.png,../image/spain.png,,,2,america,spain,,,,,1,,,,,,,,,,,,,,,,,,,,,0,34,34,52,,,,,,,,,,,,,,,,,,,,,,,,,,,,,,,,,,,,,,,,283.9990975830001,284.96149216666686,"['lshift', 'rshift']","[1.5429036659998019, 2.0863605409999764]",,,,,test1,001,2023-04-02_20h13.22.629,exp,2022.2.5,None,
29.0,l2,t,es,na,../audio/029.wav,,l2_t_es_na_029,,,,,,,../image/america.png,../image/spain.png,,,2,america,spain,,,,,1,,,,,,,,,,,,,,,,,,,,,0,35,35,43,,,,,,,,,,,,,,,,,,,,,,,,,,,,,,,,,,,,,,,,288.9956754580003,289.97314537466696,"['lshift', 'rshift']","[1.4302026240002306, 2.610007916000086]",,,,,test1,001,2023-04-02_20h13.22.629,exp,2022.2.5,None,
105.0,l2,f,en,na,../audio/105.wav,,l2_f_en_na_105,,,,,,,../image/america.png,../image/spain.png,,,2,america,spain,,,,,None,,,,,,,,,,,,,,,,,,,,,0,36,36,9,,,,,,,,,,,,,,,,,,,,,,,,,,,,,,,,,,,,,,,,293.99140645800026,294.9730094996669,"['lshift', 'lshift']","[1.4743752080003105, 4.457618666000144]",,,,,test1,001,2023-04-02_20h13.22.629,exp,2022.2.5,None,
115.0,l2,f,se,na,../audio/115.wav,,l2_f_se_na_115,,,,,,,../image/america.png,../image/spain.png,,,2,america,spain,,,,,1,,,,,,,,,,,,,,,,,,,,,0,37,37,19,,,,,,,,,,,,,,,,,,,,,,,,,,,,,,,,,,,,,,,,298.99027716699993,299.9611934166667,"['lshift', 'rshift']","[1.5213535409998258, 2.4079155409999657]",,,,,test1,001,2023-04-02_20h13.22.629,exp,2022.2.5,None,
126.0,l2,f,sp,na,../audio/126.wav,,l2_f_sp_na_126,,,,,,,../image/america.png,../image/spain.png,,,2,america,spain,,,,,None,,,,,,,,,,,,,,,,,,,,,0,38,38,30,,,,,,,,,,,,,,,,,,,,,,,,,,,,,,,,,,,,,,,,303.99683604200027,304.97296987466666,"['lshift', 'rshift']","[1.9206017500000598, 2.834440957999959]",,,,,test1,001,2023-04-02_20h13.22.629,exp,2022.2.5,None,
167.0,l2,t,es,f0c,../audio/167.wav,,l2_t_es_f0c_167,,,,,,,../image/america.png,../image/spain.png,,,2,america,spain,,,,,1,,,,,,,,,,,,,,,,,,,,,0,39,39,51,,,,,,,,,,,,,,,,,,,,,,,,,,,,,,,,,,,,,,,,308.99478954200003,309.9729621666668,"['lshift', 'rshift']","[1.948288582999794, 2.8597005000001445]",,,,,test1,001,2023-04-02_20h13.22.629,exp,2022.2.5,None,
24.0,l2,t,es,na,../audio/024.wav,,l2_t_es_na_024,,,,,,,../image/america.png,../image/spain.png,,,2,america,spain,,,,,1,,,,,,,,,,,,,,,,,,,,,0,40,40,38,,,,,,,,,,,,,,,,,,,,,,,,,,,,,,,,,,,,,,,,313.99312216700037,314.97291829166693,"['lshift', 'rshift']","[1.4989636669997708, 2.2526619579998624]",,,,,test1,001,2023-04-02_20h13.22.629,exp,2022.2.5,None,
120.0,l2,f,se,na,../audio/120.wav,,l2_f_se_na_120,,,,,,,../image/america.png,../image/spain.png,,,2,america,spain,,,,,1,,,,,,,,,,,,,,,,,,,,,0,41,41,24,,,,,,,,,,,,,,,,,,,,,,,,,,,,,,,,,,,,,,,,318.99745166699995,319.9729239996666,"['rshift', 'lshift']","[1.5721762919997673, 2.610797792000085]",,,,,test1,001,2023-04-02_20h13.22.629,exp,2022.2.5,None,
111.0,l2,f,se,na,../audio/111.wav,,l2_f_se_na_111,,,,,,,../image/america.png,../image/spain.png,,,2,america,spain,,,,,1,,,,,,,,,,,,,,,,,,,,,0,42,42,15,,,,,,,,,,,,,,,,,,,,,,,,,,,,,,,,,,,,,,,,323.99459879200003,324.972837958667,"['rshift', 'lshift']","[3.131914333000168, 3.348740375000034]",,,,,test1,001,2023-04-02_20h13.22.629,exp,2022.2.5,None,
21.0,l2,t,es,na,../audio/021.wav,,l2_t_es_na_021,,,,,,,../image/america.png,../image/spain.png,,,2,america,spain,,,,,1,,,,,,,,,,,,,,,,,,,,,0,43,43,35,,,,,,,,,,,,,,,,,,,,,,,,,,,,,,,,,,,,,,,,328.99381279199997,329.9728544996667,"['lshift', 'rshift']","[1.5927992080000877, 2.24139358299999]",,,,,test1,001,2023-04-02_20h13.22.629,exp,2022.2.5,None,
99.0,l2,f,en,na,../audio/099.wav,,l2_f_en_na_099,,,,,,,../image/america.png,../image/spain.png,,,2,america,spain,,,,,None,,,,,,,,,,,,,,,,,,,,,0,44,44,3,,,,,,,,,,,,,,,,,,,,,,,,,,,,,,,,,,,,,,,,333.99592970799995,334.97276258366696,['lshift'],[1.4955403750000187],,,,,test1,001,2023-04-02_20h13.22.629,exp,2022.2.5,None,
102.0,l2,f,en,na,../audio/102.wav,,l2_f_en_na_102,,,,,,,../image/america.png,../image/spain.png,,,2,america,spain,,,,,None,,,,,,,,,,,,,,,,,,,,,0,45,45,6,,,,,,,,,,,,,,,,,,,,,,,,,,,,,,,,,,,,,,,,338.9943900000003,339.97279654166664,['lshift'],[1.2381817909999882],,,,,test1,001,2023-04-02_20h13.22.629,exp,2022.2.5,None,
125,l2,f,sp,na,../audio/125.wav,,l2_f_sp_na_125,,,,,,,../image/america.png,../image/spain.png,,,2,america,spain,,,,,None,,,,,,,,,,,,,,,,,,,,,0,46,46,29,,,,,,,,,,,,,,,,,,,,,,,,,,,,,,,,,,,,,,,,343.99879258300007,344.96104295866667,"['lshift', 'rshift', 'lshift', 'rshift']","[1.2834054580002885, 1.8041793330003202, 2.2119864580004105, 2.7923071670002173]",,,,,test1,001,2023-04-02_20h13.22.629,exp,2022.2.5,None,
106.0,l2,f,en,na,../audio/106.wav,,l2_f_en_na_106,,,,,,,../image/america.png,../image/spain.png,,,2,america,spain,,,,,None,,,,,,,,,,,,,,,,,,,,,0,47,47,10,,,,,,,,,,,,,,,,,,,,,,,,,,,,,,,,,,,,,,,,348.992024958,349.97271629166676,['lshift'],[1.5904725830000643],,,,,test1,001,2023-04-02_20h13.22.629,exp,2022.2.5,None,
97.0,l2,f,en,na,../audio/097.wav,,l2_f_en_na_097,,,,,,,../image/america.png,../image/spain.png,,,2,america,spain,,,,,None,,,,,,,,,,,,,,,,,,,,,0,48,48,1,,,,,,,,,,,,,,,,,,,,,,,,,,,,,,,,,,,,,,,,353.99421329200004,354.97261791666665,['lshift'],[1.8575454580000041],,,,,test1,001,2023-04-02_20h13.22.629,exp,2022.2.5,None,
98.0,l2,f,en,na,../audio/098.wav,,l2_f_en_na_098,,,,,,,../image/america.png,../image/spain.png,,,2,america,spain,,,,,None,,,,,,,,,,,,,,,,,,,,,0,49,49,2,,,,,,,,,,,,,,,,,,,,,,,,,,,,,,,,,,,,,,,,358.9927371250001,359.9726885416669,['lshift'],[1.3150182499998664],,,,,test1,001,2023-04-02_20h13.22.629,exp,2022.2.5,None,
109.0,l2,f,en,na,../audio/109.wav,,l2_f_en_na_109,,,,,,,../image/america.png,../image/spain.png,,,2,america,spain,,,,,None,,,,,,,,,,,,,,,,,,,,,0,50,50,13,,,,,,,,,,,,,,,,,,,,,,,,,,,,,,,,,,,,,,,,363.9941223330002,364.9727200836667,['lshift'],[1.5796847910000906],,,,,test1,001,2023-04-02_20h13.22.629,exp,2022.2.5,None,
116.0,l2,f,se,na,../audio/116.wav,,l2_f_se_na_116,,,,,,,../image/america.png,../image/spain.png,,,2,america,spain,,,,,1,,,,,,,,,,,,,,,,,,,,,0,51,51,20,,,,,,,,,,,,,,,,,,,,,,,,,,,,,,,,,,,,,,,,368.99462525000035,369.97260741666673,"['lshift', 'rshift', 'lshift', 'rshift']","[1.4482621240003937, 2.5318898330001502, 2.8976086659999964, 4.229049374000169]",,,,,test1,001,2023-04-02_20h13.22.629,exp,2022.2.5,None,
170.0,l2,t,es,f0c,../audio/170.wav,,l2_t_es_f0c_170,,,,,,,../image/america.png,../image/spain.png,,,2,america,spain,,,,,1,,,,,,,,,,,,,,,,,,,,,0,52,52,54,,,,,,,,,,,,,,,,,,,,,,,,,,,,,,,,,,,,,,,,373.99411825000016,374.9725109586668,"['rshift', 'lshift', 'lshift', 'rshift']","[1.8465739160001249, 2.6359108750002633, 3.082113165999999, 4.8398336660002315]",,,,,test1,001,2023-04-02_20h13.22.629,exp,2022.2.5,None,
23.0,l2,t,es,na,../audio/023.wav,,l2_t_es_na_023,,,,,,,../image/america.png,../image/spain.png,,,2,america,spain,,,,,1,,,,,,,,,,,,,,,,,,,,,0,53,53,37,,,,,,,,,,,,,,,,,,,,,,,,,,,,,,,,,,,,,,,,378.9920860000002,379.9725081246668,"['lshift', 'rshift']","[1.8324885830002131, 2.6164463330001126]",,,,,test1,001,2023-04-02_20h13.22.629,exp,2022.2.5,None,
124.0,l2,f,sp,na,../audio/124.wav,,l2_f_sp_na_124,,,,,,,../image/america.png,../image/spain.png,,,2,america,spain,,,,,None,,,,,,,,,,,,,,,,,,,,,0,54,54,28,,,,,,,,,,,,,,,,,,,,,,,,,,,,,,,,,,,,,,,,383.9934268330003,384.972585291667,"['lshift', 'rshift']","[1.5000777919999564, 2.1064174170001024]",,,,,test1,001,2023-04-02_20h13.22.629,exp,2022.2.5,None,
,,,,,,,,,,,,,,,,,,,,,,,,,,,,,,,,,,,,,,,,,,,,,,,,,,,,,,,,,,,,,,,,,,,,,,,,,,,,,,,,,,,,,,,,,,,,,388.9783807920003,388.9783807920003,space,4.333397082999909,test1,001,2023-04-02_20h13.22.629,exp,2022.2.5,None,
