num,list,cond,lang,type,sound_dir,phr,sent_code,mat,mat_num,emb_num,emb,cut,mat_f0_c,left,right,correct_img,correct,exp_num,image,image_alt,left_img,right_img,correct_key,image_dir,cs,exp1_retrial.thisRepN,exp1_retrial.thisTrialN,exp1_retrial.thisN,exp1_retrial.thisIndex,exp1_trial_loop.thisRepN,exp1_trial_loop.thisTrialN,exp1_trial_loop.thisN,exp1_trial_loop.thisIndex,exp1_loop.thisRepN,exp1_loop.thisTrialN,exp1_loop.thisN,exp1_loop.thisIndex,exp2_retrial.thisRepN,exp2_retrial.thisTrialN,exp2_retrial.thisN,exp2_retrial.thisIndex,exp2_trial_loop.thisRepN,exp2_trial_loop.thisTrialN,exp2_trial_loop.thisN,exp2_trial_loop.thisIndex,exp2_loop.thisRepN,exp2_loop.thisTrialN,exp2_loop.thisN,exp2_loop.thisIndex,exp1_trial_key.started,exp1_trial_sound.started,exp1_trial_key.keys,exp1_trial_key.rt,exp1_key.started,exp1_sound.started,exp1_key.keys,exp1_key.rt,exp2_trial_key.started,exp2_trial_sound.started,exp2_trial_key.keys,exp2_trial_key.rt,exp2_key.started,exp2_sound.started,exp2_key.keys,exp2_key.rt,participant,session,date,expName,psychopyVersion,frameRate,
tr1,lt,tr,en,na,../practice_trial/audio/tr1.wav,Where are your kids?,lt_tr_en_na_tr1,-,-,-,-,-,-,../image/kids.png,../image/plates.png,kids,lshift,,,,,,,,,0,0,0,0,0,0,0,0,,,,,,,,,,,,,,,,,15.421971457999462,16.365100333666547,['lshift'],[1.3410713330004],,,,,,,,,,,,,test2,001,2023-04-02_20h28.18.614,exp,2022.2.5,None,
tr2,lt,tr,en,na,../practice_trial/audio/tr2.wav,Who is buying my car?,lt_tr_en_na_tr2,-,-,-,-,-,-,../image/bag.png,../image/car.png,car,rshift,,,,,,,,,0,0,0,0,0,1,1,1,,,,,,,,,,,,,,,,,16.795508332999816,17.77778608366613,['lshift'],[1.4625192490002519],,,,,,,,,,,,,test2,001,2023-04-02_20h28.18.614,exp,2022.2.5,None,
tr3,lt,tr,sp,na,../practice_trial/audio/tr3.wav,¿Dónde está mi perro?,lt_tr_sp_na_tr3,-,-,-,-,-,-,../image/dog.png,../image/grandma.png,dog,lshift,,,,,,,,,0,0,0,0,0,2,2,2,,,,,,,,,,,,,,,,,18.294408875000045,19.277613958666066,['lshift'],[1.5348759580010665],,,,,,,,,,,,,test2,001,2023-04-02_20h28.18.614,exp,2022.2.5,None,
tr4,lt,tr,sp,na,../practice_trial/audio/tr4.wav,¿De quién es la bolsa?,lt_tr_sp_na_tr4,-,-,-,-,-,-,../image/shirt.png,../image/bag.png,bag,rshift,,,,,,,,,0,0,0,0,0,3,3,3,,,,,,,,,,,,,,,,,19.85653524999998,20.844637166666203,['lshift'],[1.5793386660006945],,,,,,,,,,,,,test2,001,2023-04-02_20h28.18.614,exp,2022.2.5,None,
tr5,lt,tr,se,na,../practice_trial/audio/tr5.wav,¿Dónde encontraste sus donuts?,lt_tr_se_na_tr5,-,-,-,-,-,-,../image/donut.png,../image/cups.png,donut,lshift,,,,,,,,,0,0,0,0,0,4,4,4,,,,,,,,,,,,,,,,,21.4789704169998,22.463861666666403,['lshift'],[1.4247110420010358],,,,,,,,,,,,,test2,001,2023-04-02_20h28.18.614,exp,2022.2.5,None,
tr6,lt,tr,se,na,../practice_trial/audio/tr6.wav,¿Cuándo compraste tu sweater?,lt_tr_se_na_tr6,-,-,-,-,-,-,../image/chair.png,../image/sweater.png,sweater,rshift,,,,,,,,,0,0,0,0,0,5,5,5,,,,,,,,,,,,,,,,,22.9419184999997,23.92779729166638,['lshift'],[1.3621905410000181],,,,,,,,,,,,,test2,001,2023-04-02_20h28.18.614,exp,2022.2.5,None,
tr7,lt,tr,es,na,../practice_trial/audio/tr7.wav,Why do you have my camisa?,lt_tr_es_na_tr7,-,-,-,-,-,-,../image/shirt.png,../image/wallet.png,shirt,lshift,,,,,,,,,0,0,0,0,0,6,6,6,,,,,,,,,,,,,,,,,24.34114312499969,25.315342708666563,['lshift'],[1.3586431660005474],,,,,,,,,,,,,test2,001,2023-04-02_20h28.18.614,exp,2022.2.5,None,
tr8,lt,tr,es,na,../practice_trial/audio/tr8.wav,Where did you find his chanclas?,lt_tr_es_na_tr8,-,-,-,-,-,-,../image/key.png,../image/flipflops.png,flipflops,rshift,,,,,,,,,0,0,0,0,0,7,7,7,,,,,,,,,,,,,,,,,25.739767666999796,26.714878958666546,['lshift'],[1.306846750000659],,,,,,,,,,,,,test2,001,2023-04-02_20h28.18.614,exp,2022.2.5,None,
,,,,,,,,,,,,,,,,,,,,,,,,,,0,0,0,0,,,,,,,,,,,,,,,,,,,,,,,,,,,,,,,,,,,,,test2,001,2023-04-02_20h28.18.614,exp,2022.2.5,None,
84.0,l1,f,se,na,../audio/084.wav,,l1_f_se_na_084,,,,,,,../image/penthouse.png,../image/rocket.png,penthouse,,1,penthouse,rocket,penthouse,rocket,l,None,,,,,,,,,,0,0,0,23,,,,,,,,,,,,,,,,,29.72066687499955,30.664876041666744,['rshift'],[1.3182357490004506],,,,,,,,,test2,001,2023-04-02_20h28.18.614,exp,2022.2.5,None,
89.0,l1,f,sp,na,../audio/089.wav,,l1_f_sp_na_089,,,,,,,../image/bed.png,../image/wallet.png,wallet,,1,wallet,bed,bed,wallet,r,None,,,,,,,,,,0,1,1,28,,,,,,,,,,,,,,,,,31.08011620799971,32.060991916666595,['rshift'],[1.299625583001216],,,,,,,,,test2,001,2023-04-02_20h28.18.614,exp,2022.2.5,None,
19.0,l1,t,es,na,../audio/019.wav,,l1_t_es_na_019,,,,,,,../image/boy.png,../image/dog.png,boy,,1,boy,dog,boy,dog,l,None,,,,,,,,,,0,2,2,43,,,,,,,,,,,,,,,,,32.413641582999844,33.39421229166625,['rshift'],[1.4660738750008022],,,,,,,,,test2,001,2023-04-02_20h28.18.614,exp,2022.2.5,None,
76.0,l1,f,se,na,../audio/076.wav,,l1_f_se_na_076,,,,,,,../image/hotdog.png,../image/burger.png,hotdog,,1,hotdog,burger,hotdog,burger,l,None,,,,,,,,,,0,3,3,15,,,,,,,,,,,,,,,,,33.91351708299953,34.894206166666905,['rshift'],[1.4042137490005189],,,,,,,,,test2,001,2023-04-02_20h28.18.614,exp,2022.2.5,None,
136.0,l1,t,es,f0u,../audio/136.wav,,l1_t_es_f0u_136,,,,,,,../image/city.png,../image/village.png,village,,1,village,city,city,village,r,None,,,,,,,,,,0,4,4,50,,,,,,,,,,,,,,,,,35.36064904199975,36.34424158366643,['rshift'],[1.3904980000006617],,,,,,,,,test2,001,2023-04-02_20h28.18.614,exp,2022.2.5,None,
61.0,l1,f,en,na,../audio/061.wav,,l1_f_en_na_061,,,,,,,../image/cat.png,../image/dog.png,dog,,1,dog,cat,cat,dog,r,../image/,,,,,,,,,,0,5,5,0,,,,,,,,,,,,,,,,,36.7928638329995,37.77762737466607,['rshift'],[1.4286076250000406],,,,,,,,,test2,001,2023-04-02_20h28.18.614,exp,2022.2.5,None,
90.0,l1,f,sp,na,../audio/090.wav,,l1_f_sp_na_090,,,,,,,../image/bag.png,../image/bottle.png,bag,,1,bag,bottle,bag,bottle,l,None,,,,,,,,,,0,6,6,29,,,,,,,,,,,,,,,,,38.25531412500004,39.23236024966651,['rshift'],[1.3010942080009045],,,,,,,,,test2,001,2023-04-02_20h28.18.614,exp,2022.2.5,None,
93.0,l1,f,sp,na,../audio/093.wav,,l1_f_sp_na_093,,,,,,,../image/boy.png,../image/book.png,book,,1,book,boy,boy,book,r,None,,,,,,,,,,0,7,7,32,,,,,,,,,,,,,,,,,39.592065541999546,40.57772624966607,['rshift'],[1.3873761660006494],,,,,,,,,test2,001,2023-04-02_20h28.18.614,exp,2022.2.5,None,
78.0,l1,f,se,na,../audio/078.wav,,l1_f_se_na_078,,,,,,,../image/airpods.png,../image/joycons.png,airpods,,1,airpods,joycons,airpods,joycons,l,None,,,,,,,,,,0,8,8,17,,,,,,,,,,,,,,,,,41.008674457999405,41.99424579166613,['rshift'],[1.359136416000183],,,,,,,,,test2,001,2023-04-02_20h28.18.614,exp,2022.2.5,None,
77.0,l1,f,se,na,../audio/077.wav,,l1_f_se_na_077,,,,,,,../image/mashedpotatoes.png,../image/donut.png,donut,,1,donut,mashedpotatoes,mashedpotatoes,donut,r,None,,,,,,,,,,0,9,9,16,,,,,,,,,,,,,,,,,42.4087231249996,43.394160999666624,['rshift'],[1.3706177499998375],,,,,,,,,test2,001,2023-04-02_20h28.18.614,exp,2022.2.5,None,
83.0,l1,f,se,na,../audio/083.wav,,l1_f_se_na_083,,,,,,,../image/donut.png,../image/burger.png,burger,,1,burger,donut,donut,burger,r,None,,,,,,,,,,0,10,10,22,,,,,,,,,,,,,,,,,43.81233024999983,44.79329583366622,['rshift'],[1.3171891660003894],,,,,,,,,test2,001,2023-04-02_20h28.18.614,exp,2022.2.5,None,
135.0,l1,t,es,f0u,../audio/135.wav,,l1_t_es_f0u_135,,,,,,,../image/flipflops.png,../image/flower.png,flipflops,,1,flipflops,flower,flipflops,flower,l,None,,,,,,,,,,0,11,11,49,,,,,,,,,,,,,,,,,45.16562824999983,46.143972583666496,['rshift'],[1.296552583000448],,,,,,,,,test2,001,2023-04-02_20h28.18.614,exp,2022.2.5,None,
131.0,l1,t,es,f0u,../audio/131.wav,,l1_t_es_f0u_131,,,,,,,../image/cat.png,../image/flower.png,cat,,1,cat,flower,cat,flower,l,None,,,,,,,,,,0,12,12,45,,,,,,,,,,,,,,,,,46.49296845800018,47.477664541666186,['rshift'],[1.290882333000809],,,,,,,,,test2,001,2023-04-02_20h28.18.614,exp,2022.2.5,None,
92.0,l1,f,sp,na,../audio/092.wav,,l1_f_sp_na_092,,,,,,,../image/armchair.png,../image/dog.png,armchair,,1,armchair,dog,armchair,dog,l,None,,,,,,,,,,0,13,13,31,,,,,,,,,,,,,,,,,47.82829920799941,48.81071887466648,['rshift'],[1.2588522080013718],,,,,,,,,test2,001,2023-04-02_20h28.18.614,exp,2022.2.5,None,
82.0,l1,f,se,na,../audio/082.wav,,l1_f_se_na_082,,,,,,,../image/mickeymouse.png,../image/spongebob.png,mickeymouse,,1,mickeymouse,spongebob,mickeymouse,spongebob,l,None,,,,,,,,,,0,14,14,21,,,,,,,,,,,,,,,,,49.12500891699983,50.11107345866664,['rshift'],[1.273522999999841],,,,,,,,,test2,001,2023-04-02_20h28.18.614,exp,2022.2.5,None,
87.0,l1,f,sp,na,../audio/087.wav,,l1_f_sp_na_087,,,,,,,../image/desk.png,../image/bed.png,bed,,1,bed,desk,desk,bed,r,None,,,,,,,,,,0,15,15,26,,,,,,,,,,,,,,,,,50.44896358299957,51.42753545866641,['rshift'],[1.334199375000935],,,,,,,,,test2,001,2023-04-02_20h28.18.614,exp,2022.2.5,None,
64.0,l1,f,en,na,../audio/064.wav,,l1_f_en_na_064,,,,,,,../image/wallet.png,../image/key.png,wallet,,1,wallet,key,wallet,key,l,None,,,,,,,,,,0,16,16,3,,,,,,,,,,,,,,,,,51.82327858299959,52.798353416666274,['rshift'],[1.3303014160010207],,,,,,,,,test2,001,2023-04-02_20h28.18.614,exp,2022.2.5,None,
68.0,l1,f,en,na,../audio/068.wav,,l1_f_en_na_068,,,,,,,../image/socks.png,../image/book.png,socks,,1,socks,book,socks,book,l,None,,,,,,,,,,0,17,17,7,,,,,,,,,,,,,,,,,53.19225337499938,54.17754133366658,['rshift'],[1.2538881669997863],,,,,,,,,test2,001,2023-04-02_20h28.18.614,exp,2022.2.5,None,
66.0,l1,f,en,na,../audio/066.wav,,l1_f_en_na_066,,,,,,,../image/bag.png,../image/scarf.png,bag,,1,bag,scarf,bag,scarf,l,None,,,,,,,,,,0,18,18,5,,,,,,,,,,,,,,,,,54.47617999999966,55.460780374666015,['rshift'],[1.3485563750000438],,,,,,,,,test2,001,2023-04-02_20h28.18.614,exp,2022.2.5,None,
65.0,l1,f,en,na,../audio/065.wav,,l1_f_en_na_065,,,,,,,../image/computer.png,../image/book.png,book,,1,book,computer,computer,book,r,None,,,,,,,,,,0,19,19,4,,,,,,,,,,,,,,,,,55.86129616699964,56.84418320866668,['rshift'],[1.3077589580007043],,,,,,,,,test2,001,2023-04-02_20h28.18.614,exp,2022.2.5,None,
72.0,l1,f,en,na,../audio/072.wav,,l1_f_en_na_072,,,,,,,../image/dog.png,../image/fish.png,dog,,1,dog,fish,dog,fish,l,None,,,,,,,,,,0,20,20,11,,,,,,,,,,,,,,,,,57.209992707999845,58.19430829166619,['rshift'],[1.276966791000632],,,,,,,,,test2,001,2023-04-02_20h28.18.614,exp,2022.2.5,None,
12.0,l1,t,es,na,../audio/012.wav,,l1_t_es_na_012,,,,,,,../image/newspaper.png,../image/book.png,book,,1,book,newspaper,newspaper,book,r,None,,,,,,,,,,0,21,21,36,,,,,,,,,,,,,,,,,58.527395541999795,59.511022416666734,['rshift'],[1.3557266660000096],,,,,,,,,test2,001,2023-04-02_20h28.18.614,exp,2022.2.5,None,
75.0,l1,f,en,na,../audio/075.wav,,l1_f_en_na_075,,,,,,,../image/dog.png,../image/fish.png,fish,,1,fish,dog,dog,fish,r,None,,,,,,,,,,0,22,22,14,,,,,,,,,,,,,,,,,59.92582895800024,60.910916124666315,['rshift'],[1.2869499160005944],,,,,,,,,test2,001,2023-04-02_20h28.18.614,exp,2022.2.5,None,
81.0,l1,f,se,na,../audio/081.wav,,l1_f_se_na_081,,,,,,,../image/boxers.png,../image/sweatpants.png,sweatpants,,1,sweatpants,boxers,boxers,sweatpants,r,None,,,,,,,,,,0,23,23,20,,,,,,,,,,,,,,,,,61.244580999999926,62.227548374666426,['rshift'],[1.2388940420005383],,,,,,,,,test2,001,2023-04-02_20h28.18.614,exp,2022.2.5,None,
94.0,l1,f,sp,na,../audio/094.wav,,l1_f_sp_na_094,,,,,,,../image/beer.png,../image/horchata.png,beer,,1,beer,horchata,beer,horchata,l,None,,,,,,,,,,0,24,24,33,,,,,,,,,,,,,,,,,62.524277667000206,63.51093054166655,['rshift'],[1.2883662080012073],,,,,,,,,test2,001,2023-04-02_20h28.18.614,exp,2022.2.5,None,
91.0,l1,f,sp,na,../audio/091.wav,,l1_f_sp_na_091,,,,,,,../image/backpack.png,../image/bracelet.png,bracelet,,1,bracelet,backpack,backpack,bracelet,r,None,,,,,,,,,,0,25,25,30,,,,,,,,,,,,,,,,,63.845670874999996,64.82762891666631,['rshift'],[1.2565307500008203],,,,,,,,,test2,001,2023-04-02_20h28.18.614,exp,2022.2.5,None,
11.0,l1,t,es,na,../audio/011.wav,,l1_t_es_na_011,,,,,,,../image/armchair.png,../image/bed.png,armchair,,1,armchair,bed,armchair,bed,l,None,,,,,,,,,,0,26,26,35,,,,,,,,,,,,,,,,,65.14540874999966,66.12765958366641,['rshift'],[1.3260839580007087],,,,,,,,,test2,001,2023-04-02_20h28.18.614,exp,2022.2.5,None,
17.0,l1,t,es,na,../audio/017.wav,,l1_t_es_na_017,,,,,,,../image/jug.png,../image/cat.png,jug,,1,jug,cat,jug,cat,l,None,,,,,,,,,,0,27,27,41,,,,,,,,,,,,,,,,,66.50531962500008,67.4814581246667,['lshift'],[1.2669572910008355],,,,,,,,,test2,001,2023-04-02_20h28.18.614,exp,2022.2.5,None,
138.0,l1,t,es,f0u,../audio/138.wav,,l1_t_es_f0u_138,,,,,,,../image/pants.png,../image/shirt.png,shirt,,1,shirt,pants,pants,shirt,r,None,,,,,,,,,,0,28,28,52,,,,,,,,,,,,,,,,,67.80831491699973,68.79410899966685,['lshift'],[1.4777314170005411],,,,,,,,,test2,001,2023-04-02_20h28.18.614,exp,2022.2.5,None,
70.0,l1,f,en,na,../audio/070.wav,,l1_f_en_na_070,,,,,,,../image/computer.png,../image/bed.png,computer,,1,computer,bed,computer,bed,l,None,,,,,,,,,,0,29,29,9,,,,,,,,,,,,,,,,,69.32379729199965,70.29805562466687,['lshift'],[1.230116417001227],,,,,,,,,test2,001,2023-04-02_20h28.18.614,exp,2022.2.5,None,
139.0,l1,t,es,f0u,../audio/139.wav,,l1_t_es_f0u_139,,,,,,,../image/restaurant.png,../image/hotel.png,restaurant,,1,restaurant,hotel,restaurant,hotel,l,None,,,,,,,,,,0,30,30,53,,,,,,,,,,,,,,,,,70.59527995799999,71.5772736666661,['lshift'],[1.2438879580013236],,,,,,,,,test2,001,2023-04-02_20h28.18.614,exp,2022.2.5,None,
18.0,l1,t,es,na,../audio/018.wav,,l1_t_es_na_018,,,,,,,../image/cups.png,../image/napkins.png,napkins,,1,napkins,cups,cups,napkins,r,None,,,,,,,,,,0,31,31,42,,,,,,,,,,,,,,,,,71.87410062500021,72.86079370866652,['lshift'],[1.3665853330012396],,,,,,,,,test2,001,2023-04-02_20h28.18.614,exp,2022.2.5,None,
133.0,l1,t,es,f0u,../audio/133.wav,,l1_t_es_f0u_133,,,,,,,../image/cellphone.png,../image/book.png,cellphone,,1,cellphone,book,cellphone,book,l,None,,,,,,,,,,0,32,32,47,,,,,,,,,,,,,,,,,73.27657129199997,74.26073424966604,['rshift'],[1.2309424160011986],,,,,,,,,test2,001,2023-04-02_20h28.18.614,exp,2022.2.5,None,
134.0,l1,t,es,f0u,../audio/134.wav,,l1_t_es_f0u_134,,,,,,,../image/basket.png,../image/truck.png,truck,,1,truck,basket,basket,truck,r,None,,,,,,,,,,0,33,33,48,,,,,,,,,,,,,,,,,74.54671629199947,75.52728891666654,['lshift'],[1.3757242080009746],,,,,,,,,test2,001,2023-04-02_20h28.18.614,exp,2022.2.5,None,
132.0,l1,t,es,f0u,../audio/132.wav,,l1_t_es_f0u_132,,,,,,,../image/car.png,../image/grandma.png,grandma,,1,grandma,car,car,grandma,r,None,,,,,,,,,,0,34,34,46,,,,,,,,,,,,,,,,,75.9577112500001,76.93153437466687,['rshift'],[1.347206167000877],,,,,,,,,test2,001,2023-04-02_20h28.18.614,exp,2022.2.5,None,
62.0,l1,f,en,na,../audio/062.wav,,l1_f_en_na_062,,,,,,,../image/shoe.png,../image/ring.png,shoe,,1,shoe,ring,shoe,ring,l,None,,,,,,,,,,0,35,35,1,,,,,,,,,,,,,,,,,77.34299616699991,78.32736533366666,['lshift'],[1.3404708330008361],,,,,,,,,test2,001,2023-04-02_20h28.18.614,exp,2022.2.5,None,
67.0,l1,f,en,na,../audio/067.wav,,l1_f_en_na_067,,,,,,,../image/beer.png,../image/glasses.png,glasses,,1,glasses,beer,beer,glasses,r,None,,,,,,,,,,0,36,36,6,,,,,,,,,,,,,,,,,78.71906579200004,79.6980003746669,['rshift'],[1.368812541000807],,,,,,,,,test2,001,2023-04-02_20h28.18.614,exp,2022.2.5,None,
69.0,l1,f,en,na,../audio/069.wav,,l1_f_en_na_069,,,,,,,../image/bag.png,../image/shirt.png,shirt,,1,shirt,bag,bag,shirt,r,None,,,,,,,,,,0,37,37,8,,,,,,,,,,,,,,,,,80.12322491699979,81.11079454166635,['lshift'],[1.2756888740004797],,,,,,,,,test2,001,2023-04-02_20h28.18.614,exp,2022.2.5,None,
95.0,l1,f,sp,na,../audio/095.wav,,l1_f_sp_na_095,,,,,,,../image/socks.png,../image/key.png,key,,1,key,socks,socks,key,r,None,,,,,,,,,,0,38,38,34,,,,,,,,,,,,,,,,,81.4258890000001,82.41082045866666,['rshift'],[1.3126042080002662],,,,,,,,,test2,001,2023-04-02_20h28.18.614,exp,2022.2.5,None,
20.0,l1,t,es,na,../audio/020.wav,,l1_t_es_na_020,,,,,,,../image/cellphone.png,../image/backpack.png,backpack,,1,backpack,cellphone,cellphone,backpack,r,None,,,,,,,,,,0,39,39,44,,,,,,,,,,,,,,,,,82.77866999999969,83.75978549966682,['lshift'],[1.306286],,,,,,,,,test2,001,2023-04-02_20h28.18.614,exp,2022.2.5,None,
71.0,l1,f,en,na,../audio/071.wav,,l1_f_en_na_071,,,,,,,../image/wallet.png,../image/plane.png,plane,,1,plane,wallet,wallet,plane,r,None,,,,,,,,,,0,40,40,10,,,,,,,,,,,,,,,,,84.12743695799963,85.09756716666676,['rshift'],[1.295571500000733],,,,,,,,,test2,001,2023-04-02_20h28.18.614,exp,2022.2.5,None,
15.0,l1,t,es,na,../audio/015.wav,,l1_t_es_na_015,,,,,,,../image/glasses.png,../image/jacket.png,glasses,,1,glasses,jacket,glasses,jacket,l,None,,,,,,,,,,0,41,41,39,,,,,,,,,,,,,,,,,85.45482895799978,86.43137216666607,['lshift'],[1.3579819580008916],,,,,,,,,test2,001,2023-04-02_20h28.18.614,exp,2022.2.5,None,
86.0,l1,f,sp,na,../audio/086.wav,,l1_f_sp_na_086,,,,,,,../image/plates.png,../image/glasses.png,plates,,1,plates,glasses,plates,glasses,l,None,,,,,,,,,,0,42,42,25,,,,,,,,,,,,,,,,,86.83966975000021,87.8273242496664,['rshift'],[1.3765077910011314],,,,,,,,,test2,001,2023-04-02_20h28.18.614,exp,2022.2.5,None,
63.0,l1,f,en,na,../audio/063.wav,,l1_f_en_na_063,,,,,,,../image/woman.png,../image/man.png,man,,1,man,woman,woman,man,r,None,,,,,,,,,,0,43,43,2,,,,,,,,,,,,,,,,,88.2592548749999,89.24390487466668,['lshift'],[1.304949833000137],,,,,,,,,test2,001,2023-04-02_20h28.18.614,exp,2022.2.5,None,
88.0,l1,f,sp,na,../audio/088.wav,,l1_f_sp_na_088,,,,,,,../image/book.png,../image/cellphone.png,book,,1,book,cellphone,book,cellphone,l,None,,,,,,,,,,0,44,44,27,,,,,,,,,,,,,,,,,89.5930862919995,90.57735449966664,['rshift'],[1.3357519999999568],,,,,,,,,test2,001,2023-04-02_20h28.18.614,exp,2022.2.5,None,
73.0,l1,f,en,na,../audio/073.wav,,l1_f_en_na_073,,,,,,,../image/socks.png,../image/tshirt.png,tshirt,,1,tshirt,socks,socks,tshirt,r,None,,,,,,,,,,0,45,45,12,,,,,,,,,,,,,,,,,90.95662912499938,91.94404087466616,['lshift'],[1.3320521250007005],,,,,,,,,test2,001,2023-04-02_20h28.18.614,exp,2022.2.5,None,
16.0,l1,t,es,na,../audio/016.wav,,l1_t_es_na_016,,,,,,,../image/flipflops.png,../image/bag.png,bag,,1,bag,flipflops,flipflops,bag,r,None,,,,,,,,,,0,46,46,40,,,,,,,,,,,,,,,,,92.3244787499998,93.31020599966656,['rshift'],[1.341109874000722],,,,,,,,,test2,001,2023-04-02_20h28.18.614,exp,2022.2.5,None,
13.0,l1,t,es,na,../audio/013.wav,,l1_t_es_na_013,,,,,,,../image/beer.png,../image/wine.png,beer,,1,beer,wine,beer,wine,l,None,,,,,,,,,,0,47,47,37,,,,,,,,,,,,,,,,,93.70719145800012,94.68130258366661,['lshift'],[1.323005500000363],,,,,,,,,test2,001,2023-04-02_20h28.18.614,exp,2022.2.5,None,
80.0,l1,f,se,na,../audio/080.wav,,l1_f_se_na_080,,,,,,,../image/mouse.png,../image/rat.png,mouse,,1,mouse,rat,mouse,rat,l,None,,,,,,,,,,0,48,48,19,,,,,,,,,,,,,,,,,95.06079512499946,96.04391920866625,['rshift'],[1.3382590830005938],,,,,,,,,test2,001,2023-04-02_20h28.18.614,exp,2022.2.5,None,
74.0,l1,f,en,na,../audio/074.wav,,l1_f_en_na_074,,,,,,,../image/boy.png,../image/woman.png,boy,,1,boy,woman,boy,woman,l,None,,,,,,,,,,0,49,49,13,,,,,,,,,,,,,,,,,96.4437938330002,97.42724233366631,['lshift'],[1.311973165999916],,,,,,,,,test2,001,2023-04-02_20h28.18.614,exp,2022.2.5,None,
140.0,l1,t,es,f0u,../audio/140.wav,,l1_t_es_f0u_140,,,,,,,../image/ring.png,../image/bracelet.png,bracelet,,1,bracelet,ring,ring,bracelet,r,None,,,,,,,,,,0,50,50,54,,,,,,,,,,,,,,,,,97.78673295799945,98.76473445866601,['rshift'],[1.3282364990000133],,,,,,,,,test2,001,2023-04-02_20h28.18.614,exp,2022.2.5,None,
79.0,l1,f,se,na,../audio/079.wav,,l1_f_se_na_079,,,,,,,../image/sweatpants.png,../image/jeans.png,jeans,,1,jeans,sweatpants,sweatpants,jeans,r,None,,,,,,,,,,0,51,51,18,,,,,,,,,,,,,,,,,99.15508512499946,100.13121237466682,['lshift'],[1.3244717080006012],,,,,,,,,test2,001,2023-04-02_20h28.18.614,exp,2022.2.5,None,
14.0,l1,t,es,na,../audio/014.wav,,l1_t_es_na_014,,,,,,,../image/book.png,../image/key.png,key,,1,key,book,book,key,r,None,,,,,,,,,,0,52,52,38,,,,,,,,,,,,,,,,,100.51290299999982,101.49391504166603,['rshift'],[1.3331192080004257],,,,,,,,,test2,001,2023-04-02_20h28.18.614,exp,2022.2.5,None,
85.0,l1,f,se,na,../audio/085.wav,,l1_f_se_na_085,,,,,,,../image/loafers.png,../image/sneakers.png,sneakers,,1,sneakers,loafers,loafers,sneakers,r,None,,,,,,,,,,0,53,53,24,,,,,,,,,,,,,,,,,101.88045474999944,102.86071066666615,['lshift'],[1.328296166000655],,,,,,,,,test2,001,2023-04-02_20h28.18.614,exp,2022.2.5,None,
137.0,l1,t,es,f0u,../audio/137.wav,,l1_t_es_f0u_137,,,,,,,../image/jacket.png,../image/shirt.png,jacket,,1,jacket,shirt,jacket,shirt,l,None,,,,,,,,,,0,54,54,51,,,,,,,,,,,,,,,,,103.2413582499994,104.22725720866607,['rshift'],[1.3278890830006276],,,,,,,,,test2,001,2023-04-02_20h28.18.614,exp,2022.2.5,None,
tr1,lt,tr,en,na,../practice_trial/audio/tr1.wav,Where are your kids?,lt_tr_en_na_tr1,-,-,-,-,-,-,../image/america.png,../image/spain.png,,,,,,,,,,,,,,,,,,,,,,,0,0,0,0,0,0,0,0,,,,,,,,,,,,,109.6795937500001,110.6438693336661,['lshift'],[1.6198314160001246],,,,,test2,001,2023-04-02_20h28.18.614,exp,2022.2.5,None,
tr2,lt,tr,en,na,../practice_trial/audio/tr2.wav,Who is buying my car?,lt_tr_en_na_tr2,-,-,-,-,-,-,../image/america.png,../image/spain.png,,,,,,,,,,,,,,,,,,,,,,,0,0,0,0,0,1,1,1,,,,,,,,,,,,,111.33711549999953,112.32710804166642,['rshift'],[1.5416008330012119],,,,,test2,001,2023-04-02_20h28.18.614,exp,2022.2.5,None,
tr3,lt,tr,sp,na,../practice_trial/audio/tr3.wav,¿Dónde está mi perro?,lt_tr_sp_na_tr3,-,-,-,-,-,-,../image/america.png,../image/spain.png,,,,,,,,,,,,,,,,,,,,,,,0,0,0,0,0,2,2,2,,,,,,,,,,,,,112.90116862499963,113.89383591666616,['lshift'],[1.5785581660002208],,,,,test2,001,2023-04-02_20h28.18.614,exp,2022.2.5,None,
tr4,lt,tr,sp,na,../practice_trial/audio/tr4.wav,¿De quién es la bolsa?,lt_tr_sp_na_tr4,-,-,-,-,-,-,../image/america.png,../image/spain.png,,,,,,,,,,,,,,,,,,,,,,,0,0,0,0,0,3,3,3,,,,,,,,,,,,,114.50956795799993,115.49386408366651,['rshift'],[1.3824040830004378],,,,,test2,001,2023-04-02_20h28.18.614,exp,2022.2.5,None,
tr5,lt,tr,se,na,../practice_trial/audio/tr5.wav,¿Dónde encontraste sus donuts?,lt_tr_se_na_tr5,-,-,-,-,-,-,../image/america.png,../image/spain.png,,,,,,,,,,,,,,,,,,,,,,,0,0,0,0,0,4,4,4,,,,,,,,,,,,,115.91930212499938,116.89891174966603,['lshift'],[1.3427239580005335],,,,,test2,001,2023-04-02_20h28.18.614,exp,2022.2.5,None,
tr6,lt,tr,se,na,../practice_trial/audio/tr6.wav,¿Cuándo compraste tu sweater?,lt_tr_se_na_tr6,-,-,-,-,-,-,../image/america.png,../image/spain.png,,,,,,,,,,,,,,,,,,,,,,,0,0,0,0,0,5,5,5,,,,,,,,,,,,,117.28765695799939,118.27729162466609,['rshift'],[1.2748063740009457],,,,,test2,001,2023-04-02_20h28.18.614,exp,2022.2.5,None,
tr7,lt,tr,es,na,../practice_trial/audio/tr7.wav,Why do you have my camisa?,lt_tr_es_na_tr7,-,-,-,-,-,-,../image/america.png,../image/spain.png,,,,,,,,,,,,,,,,,,,,,,,0,0,0,0,0,6,6,6,,,,,,,,,,,,,118.58887033300016,119.57727033366633,['lshift'],[1.359229708001294],,,,,test2,001,2023-04-02_20h28.18.614,exp,2022.2.5,None,
tr8,lt,tr,es,na,../practice_trial/audio/tr8.wav,Where did you find his chanclas?,lt_tr_es_na_tr8,-,-,-,-,-,-,../image/america.png,../image/spain.png,,,,,,,,,,,,,,,,,,,,,,,0,0,0,0,0,7,7,7,,,,,,,,,,,,,119.98622862499997,120.97714483366623,['rshift'],[1.3629535830004897],,,,,test2,001,2023-04-02_20h28.18.614,exp,2022.2.5,None,
,,,,,,,,,,,,,,,,,,,,,,,,,,,,,,,,,,,,,,0,0,0,0,,,,,,,,,,,,,,,,,,,,,,,,,test2,001,2023-04-02_20h28.18.614,exp,2022.2.5,None,
161.0,l2,t,es,f0c,../audio/161.wav,,l2_t_es_f0c_161,,,,,,,../image/america.png,../image/spain.png,,,2,america,spain,,,,,1,,,,,,,,,,,,,,,,,,,,,0,0,0,45,,,,,,,,,,,,,123.76991937499952,124.7267103746665,"['rshift', 'lshift']","[1.7116248330003145, 2.28828379100014]",test2,001,2023-04-02_20h28.18.614,exp,2022.2.5,None,
168.0,l2,t,es,f0c,../audio/168.wav,,l2_t_es_f0c_168,,,,,,,../image/america.png,../image/spain.png,,,2,america,spain,,,,,1,,,,,,,,,,,,,,,,,,,,,0,1,1,52,,,,,,,,,,,,,128.74928666699998,129.72692179166668,"['lshift', 'rshift']","[1.5819701240006907, 2.21412754100038]",test2,001,2023-04-02_20h28.18.614,exp,2022.2.5,None,
100.0,l2,f,en,na,../audio/100.wav,,l2_f_en_na_100,,,,,,,../image/america.png,../image/spain.png,,,2,america,spain,,,,,None,,,,,,,,,,,,,,,,,,,,,0,2,2,4,,,,,,,,,,,,,133.74883729199973,134.72916504166668,['lshift'],[1.4644402500007345],test2,001,2023-04-02_20h28.18.614,exp,2022.2.5,None,
165.0,l2,t,es,f0c,../audio/165.wav,,l2_t_es_f0c_165,,,,,,,../image/america.png,../image/spain.png,,,2,america,spain,,,,,1,,,,,,,,,,,,,,,,,,,,,0,3,3,49,,,,,,,,,,,,,138.7473714580001,139.72688970866628,"['lshift', 'rshift']","[1.381985667000663, 2.215856125000755]",test2,001,2023-04-02_20h28.18.614,exp,2022.2.5,None,
24.0,l2,t,es,na,../audio/024.wav,,l2_t_es_na_024,,,,,,,../image/america.png,../image/spain.png,,,2,america,spain,,,,,1,,,,,,,,,,,,,,,,,,,,,0,4,4,38,,,,,,,,,,,,,143.74974658300016,144.72696412466692,"['lshift', 'rshift']","[1.3678183740012173, 2.1956079160008812]",test2,001,2023-04-02_20h28.18.614,exp,2022.2.5,None,
112.0,l2,f,se,na,../audio/112.wav,,l2_f_se_na_112,,,,,,,../image/america.png,../image/spain.png,,,2,america,spain,,,,,1,,,,,,,,,,,,,,,,,,,,,0,5,5,16,,,,,,,,,,,,,148.7463197500001,149.72676070866626,"['lshift', 'rshift', 'rshift', 'lshift']","[1.67531450000115, 1.9103943750005783, 2.1493747080012326, 2.2203727080013778]",test2,001,2023-04-02_20h28.18.614,exp,2022.2.5,None,
25.0,l2,t,es,na,../audio/025.wav,,l2_t_es_na_025,,,,,,,../image/america.png,../image/spain.png,,,2,america,spain,,,,,1,,,,,,,,,,,,,,,,,,,,,0,6,6,39,,,,,,,,,,,,,153.75091516700013,154.72700804166678,"['lshift', 'rshift']","[1.4889394580004591, 2.340307790999759]",test2,001,2023-04-02_20h28.18.614,exp,2022.2.5,None,
130.0,l2,f,sp,na,../audio/130.wav,,l2_f_sp_na_130,,,,,,,../image/america.png,../image/spain.png,,,2,america,spain,,,,,None,,,,,,,,,,,,,,,,,,,,,0,7,7,34,,,,,,,,,,,,,158.7508023749997,159.72695754166605,['rshift'],[1.6552819580001596],test2,001,2023-04-02_20h28.18.614,exp,2022.2.5,None,
167.0,l2,t,es,f0c,../audio/167.wav,,l2_t_es_f0c_167,,,,,,,../image/america.png,../image/spain.png,,,2,america,spain,,,,,1,,,,,,,,,,,,,,,,,,,,,0,8,8,51,,,,,,,,,,,,,163.7515980829994,164.72937445866617,"['lshift', 'rshift']","[1.5473917910003365, 2.336678208000194]",test2,001,2023-04-02_20h28.18.614,exp,2022.2.5,None,
109.0,l2,f,en,na,../audio/109.wav,,l2_f_en_na_109,,,,,,,../image/america.png,../image/spain.png,,,2,america,spain,,,,,None,,,,,,,,,,,,,,,,,,,,,0,9,9,13,,,,,,,,,,,,,168.74823599999945,169.72689020866645,['lshift'],[1.5575103330002094],test2,001,2023-04-02_20h28.18.614,exp,2022.2.5,None,
164.0,l2,t,es,f0c,../audio/164.wav,,l2_t_es_f0c_164,,,,,,,../image/america.png,../image/spain.png,,,2,america,spain,,,,,1,,,,,,,,,,,,,,,,,,,,,0,10,10,48,,,,,,,,,,,,,173.74939104199984,174.72691020866685,"['lshift', 'rshift']","[1.605133542000658, 2.5155221670001993]",test2,001,2023-04-02_20h28.18.614,exp,2022.2.5,None,
107.0,l2,f,en,na,../audio/107.wav,,l2_f_en_na_107,,,,,,,../image/america.png,../image/spain.png,,,2,america,spain,,,,,None,,,,,,,,,,,,,,,,,,,,,0,11,11,11,,,,,,,,,,,,,178.75006008299988,179.72655904166666,['lshift'],[1.2959545000003345],test2,001,2023-04-02_20h28.18.614,exp,2022.2.5,None,
103.0,l2,f,en,na,../audio/103.wav,,l2_f_en_na_103,,,,,,,../image/america.png,../image/spain.png,,,2,america,spain,,,,,None,,,,,,,,,,,,,,,,,,,,,0,12,12,7,,,,,,,,,,,,,183.75034716699975,184.72682279166682,['lshift'],[1.4865858330003903],test2,001,2023-04-02_20h28.18.614,exp,2022.2.5,None,
125,l2,f,sp,na,../audio/125.wav,,l2_f_sp_na_125,,,,,,,../image/america.png,../image/spain.png,,,2,america,spain,,,,,None,,,,,,,,,,,,,,,,,,,,,0,13,13,29,,,,,,,,,,,,,188.7480897079995,189.72673991666605,['rshift'],[1.6134232500007784],test2,001,2023-04-02_20h28.18.614,exp,2022.2.5,None,
115.0,l2,f,se,na,../audio/115.wav,,l2_f_se_na_115,,,,,,,../image/america.png,../image/spain.png,,,2,america,spain,,,,,1,,,,,,,,,,,,,,,,,,,,,0,14,14,19,,,,,,,,,,,,,193.74832349999997,194.7295101666662,"['rshift', 'lshift']","[1.6535598750006102, 2.2692460000007486]",test2,001,2023-04-02_20h28.18.614,exp,2022.2.5,None,
110.0,l2,f,en,na,../audio/110.wav,,l2_f_en_na_110,,,,,,,../image/america.png,../image/spain.png,,,2,america,spain,,,,,None,,,,,,,,,,,,,,,,,,,,,0,15,15,14,,,,,,,,,,,,,198.7476088329995,199.72662579166652,['lshift'],[1.9896140000000742],test2,001,2023-04-02_20h28.18.614,exp,2022.2.5,None,
117.0,l2,f,se,na,../audio/117.wav,,l2_f_se_na_117,,,,,,,../image/america.png,../image/spain.png,,,2,america,spain,,,,,1,,,,,,,,,,,,,,,,,,,,,0,16,16,21,,,,,,,,,,,,,203.74607791699964,204.72653549966643,"['rshift', 'lshift']","[2.0250233330007177, 2.7819430410008863]",test2,001,2023-04-02_20h28.18.614,exp,2022.2.5,None,
23.0,l2,t,es,na,../audio/023.wav,,l2_t_es_na_023,,,,,,,../image/america.png,../image/spain.png,,,2,america,spain,,,,,1,,,,,,,,,,,,,,,,,,,,,0,17,17,37,,,,,,,,,,,,,208.74803316699945,209.72659895866607,"['lshift', 'rshift']","[1.882767999000862, 3.0349067490005837]",test2,001,2023-04-02_20h28.18.614,exp,2022.2.5,None,
127.0,l2,f,sp,na,../audio/127.wav,,l2_f_sp_na_127,,,,,,,../image/america.png,../image/spain.png,,,2,america,spain,,,,,None,,,,,,,,,,,,,,,,,,,,,0,18,18,31,,,,,,,,,,,,,213.7488161249994,214.72662237466673,"['rshift', 'lshift', 'rshift', 'rshift']","[0.3970446660005109, 2.213063166000211, 2.63049220800076, 3.01287687400054]",test2,001,2023-04-02_20h28.18.614,exp,2022.2.5,None,
21.0,l2,t,es,na,../audio/021.wav,,l2_t_es_na_021,,,,,,,../image/america.png,../image/spain.png,,,2,america,spain,,,,,1,,,,,,,,,,,,,,,,,,,,,0,19,19,35,,,,,,,,,,,,,218.74996262500008,219.72650312466638,"['lshift', 'rshift']","[1.8675741660008498, 2.4418335000009392]",test2,001,2023-04-02_20h28.18.614,exp,2022.2.5,None,
99.0,l2,f,en,na,../audio/099.wav,,l2_f_en_na_099,,,,,,,../image/america.png,../image/spain.png,,,2,america,spain,,,,,None,,,,,,,,,,,,,,,,,,,,,0,20,20,3,,,,,,,,,,,,,223.7507792919996,224.72953358366638,['lshift'],[1.5374444580002091],test2,001,2023-04-02_20h28.18.614,exp,2022.2.5,None,
121.0,l2,f,sp,na,../audio/121.wav,,l2_f_sp_na_121,,,,,,,../image/america.png,../image/spain.png,,,2,america,spain,,,,,None,,,,,,,,,,,,,,,,,,,,,0,21,21,25,,,,,,,,,,,,,228.749966417,229.7264197916668,"['lshift', 'rshift', 'rshift', 'lshift']","[1.3780491240004267, 3.478240583001025, 3.9568323330004205, 4.94533308300106]",test2,001,2023-04-02_20h28.18.614,exp,2022.2.5,None,
126.0,l2,f,sp,na,../audio/126.wav,,l2_f_sp_na_126,,,,,,,../image/america.png,../image/spain.png,,,2,america,spain,,,,,None,,,,,,,,,,,,,,,,,,,,,0,22,22,30,,,,,,,,,,,,,233.74813575000007,234.72633524966685,"['rshift', 'lshift', 'rshift']","[2.1376202490009746, 2.5584072490000835, 3.2040762490005363]",test2,001,2023-04-02_20h28.18.614,exp,2022.2.5,None,
169.0,l2,t,es,f0c,../audio/169.wav,,l2_t_es_f0c_169,,,,,,,../image/america.png,../image/spain.png,,,2,america,spain,,,,,1,,,,,,,,,,,,,,,,,,,,,0,23,23,53,,,,,,,,,,,,,238.7491216669996,239.72642274966645,"['lshift', 'rshift']","[1.729024042000674, 2.6956657079999786]",test2,001,2023-04-02_20h28.18.614,exp,2022.2.5,None,
27.0,l2,t,es,na,../audio/027.wav,,l2_t_es_na_027,,,,,,,../image/america.png,../image/spain.png,,,2,america,spain,,,,,1,,,,,,,,,,,,,,,,,,,,,0,24,24,41,,,,,,,,,,,,,243.75023245800003,244.72642866666618,['lshift'],[1.8621763330011163],test2,001,2023-04-02_20h28.18.614,exp,2022.2.5,None,
29.0,l2,t,es,na,../audio/029.wav,,l2_t_es_na_029,,,,,,,../image/america.png,../image/spain.png,,,2,america,spain,,,,,1,,,,,,,,,,,,,,,,,,,,,0,25,25,43,,,,,,,,,,,,,248.74837449999995,249.72634245866655,"['lshift', 'rshift']","[1.7039501240005848, 2.860321416000261]",test2,001,2023-04-02_20h28.18.614,exp,2022.2.5,None,
22.0,l2,t,es,na,../audio/022.wav,,l2_t_es_na_022,,,,,,,../image/america.png,../image/spain.png,,,2,america,spain,,,,,1,,,,,,,,,,,,,,,,,,,,,0,26,26,36,,,,,,,,,,,,,253.7500808750001,254.72915383366606,"['lshift', 'rshift']","[1.8247955420001745, 2.3473247500005527]",test2,001,2023-04-02_20h28.18.614,exp,2022.2.5,None,
129.0,l2,f,sp,na,../audio/129.wav,,l2_f_sp_na_129,,,,,,,../image/america.png,../image/spain.png,,,2,america,spain,,,,,None,,,,,,,,,,,,,,,,,,,,,0,27,27,33,,,,,,,,,,,,,258.74580658299965,259.7264804166664,['rshift'],[1.793751042000622],test2,001,2023-04-02_20h28.18.614,exp,2022.2.5,None,
116.0,l2,f,se,na,../audio/116.wav,,l2_f_se_na_116,,,,,,,../image/america.png,../image/spain.png,,,2,america,spain,,,,,1,,,,,,,,,,,,,,,,,,,,,0,28,28,20,,,,,,,,,,,,,263.7483915419998,264.7263015836663,"['rshift', 'lshift']","[1.8979448330001105, 2.498602665999897]",test2,001,2023-04-02_20h28.18.614,exp,2022.2.5,None,
98.0,l2,f,en,na,../audio/098.wav,,l2_f_en_na_098,,,,,,,../image/america.png,../image/spain.png,,,2,america,spain,,,,,None,,,,,,,,,,,,,,,,,,,,,0,29,29,2,,,,,,,,,,,,,268.7480043329997,269.7261695836662,['lshift'],[1.9068442490006419],test2,001,2023-04-02_20h28.18.614,exp,2022.2.5,None,
101.0,l2,f,en,na,../audio/101.wav,,l2_f_en_na_101,,,,,,,../image/america.png,../image/spain.png,,,2,america,spain,,,,,None,,,,,,,,,,,,,,,,,,,,,0,30,30,5,,,,,,,,,,,,,273.74602783299997,274.7281251666666,['lshift'],[2.102379541001028],test2,001,2023-04-02_20h28.18.614,exp,2022.2.5,None,
111.0,l2,f,se,na,../audio/111.wav,,l2_f_se_na_111,,,,,,,../image/america.png,../image/spain.png,,,2,america,spain,,,,,1,,,,,,,,,,,,,,,,,,,,,0,31,31,15,,,,,,,,,,,,,278.74684154199986,279.7264077086668,"['lshift', 'rshift', 'rshift', 'lshift']","[1.9317393750006886, 2.4276726250009233, 3.082813458000601, 3.2408595000006244]",test2,001,2023-04-02_20h28.18.614,exp,2022.2.5,None,
113.0,l2,f,se,na,../audio/113.wav,,l2_f_se_na_113,,,,,,,../image/america.png,../image/spain.png,,,2,america,spain,,,,,1,,,,,,,,,,,,,,,,,,,,,0,32,32,17,,,,,,,,,,,,,283.74661574999936,284.72874908366634,"['rshift', 'lshift']","[1.6644345410004462, 2.1605992910008354]",test2,001,2023-04-02_20h28.18.614,exp,2022.2.5,None,
96.0,l2,f,en,na,../audio/096.wav,,l2_f_en_na_096,,,,,,,../image/america.png,../image/spain.png,,,2,america,spain,,,,,None,,,,,,,,,,,,,,,,,,,,,0,33,33,0,,,,,,,,,,,,,288.75254358299935,289.7262358746668,"['rshift', 'lshift', 'lshift']","[1.5810137080006825, 1.9509774580010344, 2.1604097500003263]",test2,001,2023-04-02_20h28.18.614,exp,2022.2.5,None,
166.0,l2,t,es,f0c,../audio/166.wav,,l2_t_es_f0c_166,,,,,,,../image/america.png,../image/spain.png,,,2,america,spain,,,,,1,,,,,,,,,,,,,,,,,,,,,0,34,34,50,,,,,,,,,,,,,293.75106358299945,294.7263325836668,"['lshift', 'rshift']","[1.5149372080004468, 2.86154199900011]",test2,001,2023-04-02_20h28.18.614,exp,2022.2.5,None,
124.0,l2,f,sp,na,../audio/124.wav,,l2_f_sp_na_124,,,,,,,../image/america.png,../image/spain.png,,,2,america,spain,,,,,None,,,,,,,,,,,,,,,,,,,,,0,35,35,28,,,,,,,,,,,,,298.75069749999966,299.7261547086666,"['lshift', 'rshift', 'rshift', 'lshift', 'rshift']","[1.8719344160008404, 1.9995942910009035, 2.399449416000607, 2.559903208000833, 3.154419208000945]",test2,001,2023-04-02_20h28.18.614,exp,2022.2.5,None,
26.0,l2,t,es,na,../audio/026.wav,,l2_t_es_na_026,,,,,,,../image/america.png,../image/spain.png,,,2,america,spain,,,,,1,,,,,,,,,,,,,,,,,,,,,0,36,36,40,,,,,,,,,,,,,303.75022737499967,304.7294409586668,"['lshift', 'rshift']","[1.644017542000256, 2.4342193330003283]",test2,001,2023-04-02_20h28.18.614,exp,2022.2.5,None,
102.0,l2,f,en,na,../audio/102.wav,,l2_f_en_na_102,,,,,,,../image/america.png,../image/spain.png,,,2,america,spain,,,,,None,,,,,,,,,,,,,,,,,,,,,0,37,37,6,,,,,,,,,,,,,308.7490216669994,309.7301524996667,"['lshift', 'rshift', 'lshift']","[1.6686467080007787, 2.53520033300083, 3.0616289990011865]",test2,001,2023-04-02_20h28.18.614,exp,2022.2.5,None,
118.0,l2,f,se,na,../audio/118.wav,,l2_f_se_na_118,,,,,,,../image/america.png,../image/spain.png,,,2,america,spain,,,,,1,,,,,,,,,,,,,,,,,,,,,0,38,38,22,,,,,,,,,,,,,313.7478030829998,314.72934795866627,"['rshift', 'lshift']","[1.849239166001098, 3.2162287500004823]",test2,001,2023-04-02_20h28.18.614,exp,2022.2.5,None,
128.0,l2,f,sp,na,../audio/128.wav,,l2_f_sp_na_128,,,,,,,../image/america.png,../image/spain.png,,,2,america,spain,,,,,None,,,,,,,,,,,,,,,,,,,,,0,39,39,32,,,,,,,,,,,,,318.7488228329994,319.7301448336668,['rshift'],[1.4069975830007024],test2,001,2023-04-02_20h28.18.614,exp,2022.2.5,None,
162.0,l2,t,es,f0c,../audio/162.wav,,l2_t_es_f0c_162,,,,,,,../image/america.png,../image/spain.png,,,2,america,spain,,,,,1,,,,,,,,,,,,,,,,,,,,,0,40,40,46,,,,,,,,,,,,,323.7471479169999,324.72996691666617,"['lshift', 'rshift']","[1.566566958000294, 2.2542814160005946]",test2,001,2023-04-02_20h28.18.614,exp,2022.2.5,None,
114.0,l2,f,se,na,../audio/114.wav,,l2_f_se_na_114,,,,,,,../image/america.png,../image/spain.png,,,2,america,spain,,,,,1,,,,,,,,,,,,,,,,,,,,,0,41,41,18,,,,,,,,,,,,,328.75010720799946,329.73004291666643,['rshift'],[1.9216460420002477],test2,001,2023-04-02_20h28.18.614,exp,2022.2.5,None,
28.0,l2,t,es,na,../audio/028.wav,,l2_t_es_na_028,,,,,,,../image/america.png,../image/spain.png,,,2,america,spain,,,,,1,,,,,,,,,,,,,,,,,,,,,0,42,42,42,,,,,,,,,,,,,333.7465700829998,334.7278157496669,"['lshift', 'rshift']","[1.815258375000667, 2.297626625000703]",test2,001,2023-04-02_20h28.18.614,exp,2022.2.5,None,
30.0,l2,t,es,na,../audio/030.wav,,l2_t_es_na_030,,,,,,,../image/america.png,../image/spain.png,,,2,america,spain,,,,,1,,,,,,,,,,,,,,,,,,,,,0,43,43,44,,,,,,,,,,,,,338.74731212499955,339.7301769996668,"['lshift', 'rshift']","[1.588175916000182, 2.840442833000452]",test2,001,2023-04-02_20h28.18.614,exp,2022.2.5,None,
105.0,l2,f,en,na,../audio/105.wav,,l2_f_en_na_105,,,,,,,../image/america.png,../image/spain.png,,,2,america,spain,,,,,None,,,,,,,,,,,,,,,,,,,,,0,44,44,9,,,,,,,,,,,,,343.7467470419997,344.72838674966647,"['lshift', 'lshift']","[1.786571666000782, 1.873571458000697]",test2,001,2023-04-02_20h28.18.614,exp,2022.2.5,None,
97.0,l2,f,en,na,../audio/097.wav,,l2_f_en_na_097,,,,,,,../image/america.png,../image/spain.png,,,2,america,spain,,,,,None,,,,,,,,,,,,,,,,,,,,,0,45,45,1,,,,,,,,,,,,,348.749856292,349.7300984996666,['lshift'],[1.6454219160004868],test2,001,2023-04-02_20h28.18.614,exp,2022.2.5,None,
170.0,l2,t,es,f0c,../audio/170.wav,,l2_t_es_f0c_170,,,,,,,../image/america.png,../image/spain.png,,,2,america,spain,,,,,1,,,,,,,,,,,,,,,,,,,,,0,46,46,54,,,,,,,,,,,,,353.750956375,354.73049924966676,"['lshift', 'rshift']","[1.8205074990009962, 2.29419099900133]",test2,001,2023-04-02_20h28.18.614,exp,2022.2.5,None,
120.0,l2,f,se,na,../audio/120.wav,,l2_f_se_na_120,,,,,,,../image/america.png,../image/spain.png,,,2,america,spain,,,,,1,,,,,,,,,,,,,,,,,,,,,0,47,47,24,,,,,,,,,,,,,358.751258667,359.7300433336661,"['rshift', 'lshift']","[1.896267708000778, 2.6202481660002377]",test2,001,2023-04-02_20h28.18.614,exp,2022.2.5,None,
122.0,l2,f,sp,na,../audio/122.wav,,l2_f_sp_na_122,,,,,,,../image/america.png,../image/spain.png,,,2,america,spain,,,,,None,,,,,,,,,,,,,,,,,,,,,0,48,48,26,,,,,,,,,,,,,363.74675000000025,364.7294497496662,['rshift'],[2.615402541000549],test2,001,2023-04-02_20h28.18.614,exp,2022.2.5,None,
163.0,l2,t,es,f0c,../audio/163.wav,,l2_t_es_f0c_163,,,,,,,../image/america.png,../image/spain.png,,,2,america,spain,,,,,1,,,,,,,,,,,,,,,,,,,,,0,49,49,47,,,,,,,,,,,,,368.74478066699976,369.73016266666605,"['rshift', 'lshift', 'rshift']","[4.01115316600044, 4.47429508300047, 4.648985249999896]",test2,001,2023-04-02_20h28.18.614,exp,2022.2.5,None,
119.0,l2,f,se,na,../audio/119.wav,,l2_f_se_na_119,,,,,,,../image/america.png,../image/spain.png,,,2,america,spain,,,,,1,,,,,,,,,,,,,,,,,,,,,0,50,50,23,,,,,,,,,,,,,373.75015283299945,374.7266732916662,['lshift'],[2.329661916000987],test2,001,2023-04-02_20h28.18.614,exp,2022.2.5,None,
104.0,l2,f,en,na,../audio/104.wav,,l2_f_en_na_104,,,,,,,../image/america.png,../image/spain.png,,,2,america,spain,,,,,None,,,,,,,,,,,,,,,,,,,,,0,51,51,8,,,,,,,,,,,,,378.7463830830002,379.7295480836667,['lshift'],[1.534642708001229],test2,001,2023-04-02_20h28.18.614,exp,2022.2.5,None,
108.0,l2,f,en,na,../audio/108.wav,,l2_f_en_na_108,,,,,,,../image/america.png,../image/spain.png,,,2,america,spain,,,,,None,,,,,,,,,,,,,,,,,,,,,0,52,52,12,,,,,,,,,,,,,383.7493171669994,384.72953470866673,['lshift'],[1.7159727490006844],test2,001,2023-04-02_20h28.18.614,exp,2022.2.5,None,
106.0,l2,f,en,na,../audio/106.wav,,l2_f_en_na_106,,,,,,,../image/america.png,../image/spain.png,,,2,america,spain,,,,,None,,,,,,,,,,,,,,,,,,,,,0,53,53,10,,,,,,,,,,,,,388.7480045829998,389.7300124586666,['lshift'],[1.6052014580000105],test2,001,2023-04-02_20h28.18.614,exp,2022.2.5,None,
123.0,l2,f,sp,na,../audio/123.wav,,l2_f_sp_na_123,,,,,,,../image/america.png,../image/spain.png,,,2,america,spain,,,,,None,,,,,,,,,,,,,,,,,,,,,0,54,54,27,,,,,,,,,,,,,393.7466769579996,394.72900054166644,"['lshift', 'rshift', 'lshift']","[1.5347019990012996, 1.9733510830010346, 2.1365059990012014]",test2,001,2023-04-02_20h28.18.614,exp,2022.2.5,None,
