num,list,cond,lang,type,sound_dir,phr,sent_code,mat,mat_num,emb_num,emb,cut,mat_f0_c,left,right,correct_img,correct_key,exp_num,image,image_alt,left_img,right_img,image_dir,cs,exp1_retrial.thisRepN,exp1_retrial.thisTrialN,exp1_retrial.thisN,exp1_retrial.thisIndex,exp1_trial_loop.thisRepN,exp1_trial_loop.thisTrialN,exp1_trial_loop.thisN,exp1_trial_loop.thisIndex,exp1_loop.thisRepN,exp1_loop.thisTrialN,exp1_loop.thisN,exp1_loop.thisIndex,exp2_retrial.thisRepN,exp2_retrial.thisTrialN,exp2_retrial.thisN,exp2_retrial.thisIndex,exp2_trial_loop.thisRepN,exp2_trial_loop.thisTrialN,exp2_trial_loop.thisN,exp2_trial_loop.thisIndex,exp2_loop.thisRepN,exp2_loop.thisTrialN,exp2_loop.thisN,exp2_loop.thisIndex,exp1_trial_cross.started,exp1_trial_key.started,exp1_trial_cross.stopped,exp1_trial_sound.started,exp1_trial_key.keys,exp1_trial_key.rt,exp1_cross.started,exp1_key.started,exp1_key.keys,exp1_key.corr,exp1_key.rt,exp1_cross.stopped,exp1_sound.started,exp1_key.stopped,exp2_trial_cross.started,exp2_trial_key.started,exp2_trial_cross.stopped,exp2_trial_sound.started,exp2_trial_key.stopped,exp2_trial_key.keys,exp2_trial_key.rt,exp2_cross.started,exp2_key.started,exp2_cross.stopped,exp2_sound.started,exp2_key.stopped,exp2_key.keys,exp2_key.rt,participant,session,date,expName,psychopyVersion,frameRate,
tr1,lt,tr,en,na,../practice_trial/audio/tr1.wav,Where are your kids?,lt_tr_en_na_tr1,-,-,-,-,-,-,../image/kids.png,../image/plates.png,kids,lshift,,,,,,,,0,0,0,0,0,0,0,0,,,,,,,,,,,,,,,,,60.18772879196331,60.33942512492649,60.43337612494361,61.09942854167117,['lshift'],[2.919438583077863],,,,,,,,,,,,,,,,,,,,,,,068,001,2023-05-02_12h09.23.391,exp_g1,2022.2.5,None,
tr2,lt,tr,en,na,../practice_trial/audio/tr2.wav,Who is buying my car?,lt_tr_en_na_tr2,-,-,-,-,-,-,../image/bag.png,../image/car.png,car,rshift,,,,,,,,0,0,0,0,0,1,1,1,,,,,,,,,,,,,,,,,63.305995582952164,63.50685079197865,63.55017445795238,64.26679008367161,['rshift'],[2.990567540982738],,,,,,,,,,,,,,,,,,,,,,,068,001,2023-05-02_12h09.23.391,exp_g1,2022.2.5,None,
tr3,lt,tr,sp,na,../practice_trial/audio/tr3.wav,¿Dónde está mi perro?,lt_tr_sp_na_tr3,-,-,-,-,-,-,../image/dog.png,../image/grandma.png,dog,lshift,,,,,,,,0,0,0,0,0,2,2,2,,,,,,,,,,,,,,,,,66.54863574996125,66.75003366696183,66.78957720799372,67.50583062466855,['lshift'],[2.111765875015408],,,,,,,,,,,,,,,,,,,,,,,068,001,2023-05-02_12h09.23.391,exp_g1,2022.2.5,None,
tr4,lt,tr,sp,na,../practice_trial/audio/tr4.wav,¿De quién es la bolsa?,lt_tr_sp_na_tr4,-,-,-,-,-,-,../image/shirt.png,../image/bag.png,bag,rshift,,,,,,,,0,0,0,0,0,3,3,3,,,,,,,,,,,,,,,,,68.9042081249645,69.11669470800553,69.15008950000629,69.87367783364995,['rshift'],[3.7509770409669727],,,,,,,,,,,,,,,,,,,,,,,068,001,2023-05-02_12h09.23.391,exp_g1,2022.2.5,None,
tr5,lt,tr,se,na,../practice_trial/audio/tr5.wav,¿Dónde encontraste sus donuts?,lt_tr_se_na_tr5,-,-,-,-,-,-,../image/donut.png,../image/cups.png,donut,lshift,,,,,,,,0,0,0,0,0,4,4,4,,,,,,,,,,,,,,,,,72.91675949993078,73.12287224992178,73.15677904197946,73.88330395863547,['lshift'],[3.410894292057492],,,,,,,,,,,,,,,,,,,,,,,068,001,2023-05-02_12h09.23.391,exp_g1,2022.2.5,None,
tr6,lt,tr,se,na,../practice_trial/audio/tr6.wav,¿Cuándo compraste tu sweater?,lt_tr_se_na_tr6,-,-,-,-,-,-,../image/chair.png,../image/sweater.png,sweater,rshift,,,,,,,,0,0,0,0,0,5,5,5,,,,,,,,,,,,,,,,,76.57129108300433,76.78341649996582,76.81675479200203,77.53973708366199,['rshift'],[2.8732522500213236],,,,,,,,,,,,,,,,,,,,,,,068,001,2023-05-02_12h09.23.391,exp_g1,2022.2.5,None,
tr7,lt,tr,es,na,../practice_trial/audio/tr7.wav,Why do you have my camisa?,lt_tr_es_na_tr7,-,-,-,-,-,-,../image/shirt.png,../image/wallet.png,shirt,lshift,,,,,,,,0,0,0,0,0,6,6,6,,,,,,,,,,,,,,,,,79.70730324997567,79.9068746669218,79.95007254194934,80.67322524957514,['lshift'],[3.2176553329918534],,,,,,,,,,,,,,,,,,,,,,,068,001,2023-05-02_12h09.23.391,exp_g1,2022.2.5,None,
tr8,lt,tr,es,na,../practice_trial/audio/tr8.wav,Where did you find his chanclas?,lt_tr_es_na_tr8,-,-,-,-,-,-,../image/key.png,../image/flipflops.png,flipflops,rshift,,,,,,,,0,0,0,0,0,7,7,7,,,,,,,,,,,,,,,,,83.17741050000768,83.37343720800709,83.42219179193489,84.13296020863733,['rshift'],[2.9180947919376194],,,,,,,,,,,,,,,,,,,,,,,068,001,2023-05-02_12h09.23.391,exp_g1,2022.2.5,None,
,,,,,,,,,,,,,,,,,,,,,,,,,0,0,0,0,,,,,,,,,,,,,,,,,,,,,,,,,,,,,,,,,,,,,,,,,,,,,,,,,068,001,2023-05-02_12h09.23.391,exp_g1,2022.2.5,None,
89.0,l1,f,sp,na,../audio/089.wav,,l1_f_sp_na_089,,,,,,,../image/bed.png,../image/wallet.png,wallet,rshift,1,wallet,bed,bed,wallet,None,,,,,,,,,,0,0,0,28,,,,,,,,,,,,,,,,,,,93.71382837498095,93.88308408297598,lshift,0,-0.515118833980523,,,,,,,,,,,,,,,,,,068,001,2023-05-02_12h09.23.391,exp_g1,2022.2.5,None,
69.0,l1,f,en,na,../audio/069.wav,,l1_f_en_na_069,,,,,,,../image/bag.png,../image/shirt.png,shirt,rshift,1,shirt,bag,bag,shirt,None,,,,,,,,,,0,1,1,8,,,,,,,,,,,,,,,,,,,93.91635249997489,94.12324758293107,rshift,1,3.030613415990956,94.15631054190453,94.88336449960867,,,,,,,,,,,,,,,,068,001,2023-05-02_12h09.23.391,exp_g1,2022.2.5,None,
131.0,l1,t,es,f0u,../audio/131.wav,,l1_t_es_f0u_131,,,,,,,../image/cat.png,../image/flower.png,cat,lshift,1,cat,flower,cat,flower,None,,,,,,,,,,0,2,2,45,,,,,,,,,,,,,,,,,,,97.20098579197656,97.40625616698526,lshift,1,3.4366661669919267,97.43993424996734,98.15672699961966,,,,,,,,,,,,,,,,068,001,2023-05-02_12h09.23.391,exp_g1,2022.2.5,None,
67.0,l1,f,en,na,../audio/067.wav,,l1_f_en_na_067,,,,,,,../image/beer.png,../image/glasses.png,glasses,rshift,1,glasses,beer,beer,glasses,None,,,,,,,,,,0,3,3,6,,,,,,,,,,,,,,,,,,,100.88962575001642,101.09943854191806,rshift,1,2.4918598330114037,101.1332152079558,101.85635124968054,,,,,,,,,,,,,,,,068,001,2023-05-02_12h09.23.391,exp_g1,2022.2.5,None,
81.0,l1,f,se,na,../audio/081.wav,,l1_f_se_na_081,,,,,,,../image/boxers.png,../image/sweatpants.png,sweatpants,rshift,1,sweatpants,boxers,boxers,sweatpants,None,,,,,,,,,,0,4,4,20,,,,,,,,,,,,,,,,,,,103.64333616697695,103.84986762492917,rshift,1,3.050490166991949,103.887355041923,104.60722895857567,,,,,,,,,,,,,,,,068,001,2023-05-02_12h09.23.391,exp_g1,2022.2.5,None,
140.0,l1,t,es,f0u,../audio/140.wav,,l1_t_es_f0u_140,,,,,,,../image/ring.png,../image/bracelet.png,bracelet,rshift,1,bracelet,ring,ring,bracelet,None,,,,,,,,,,0,5,5,54,,,,,,,,,,,,,,,,,,,106.94340304192156,107.14978745800909,lshift,0,4.48328395804856,107.18954349996056,107.90617612464509,,,,,,,,,,,,,,,,068,001,2023-05-02_12h09.23.391,exp_g1,2022.2.5,None,
92.0,l1,f,sp,na,../audio/092.wav,,l1_f_sp_na_092,,,,,,,../image/armchair.png,../image/dog.png,armchair,lshift,1,armchair,dog,armchair,dog,None,,,,,,,,,,0,6,6,31,,,,,,,,,,,,,,,,,,,111.68928941700142,111.88987762492616,lshift,1,4.185391542036086,111.93168408295605,112.64018416667047,,,,,,,,,,,,,,,,068,001,2023-05-02_12h09.23.391,exp_g1,2022.2.5,None,
138.0,l1,t,es,f0u,../audio/138.wav,,l1_t_es_f0u_138,,,,,,,../image/pants.png,../image/shirt.png,shirt,rshift,1,shirt,pants,pants,shirt,None,,,,,,,,,,0,7,7,52,,,,,,,,,,,,,,,,,,,116.12445695791394,116.33306504192296,rshift,1,3.201570541015826,116.37278004200198,117.08866020857046,,,,,,,,,,,,,,,,068,001,2023-05-02_12h09.23.391,exp_g1,2022.2.5,None,
79.0,l1,f,se,na,../audio/079.wav,,l1_f_se_na_079,,,,,,,../image/sweatpants.png,../image/jeans.png,jeans,rshift,1,jeans,sweatpants,sweatpants,jeans,None,,,,,,,,,,0,8,8,18,,,,,,,,,,,,,,,,,,,119.58180829195771,119.78975870797876,rshift,1,2.7599461659556255,119.82275704201311,120.54934216657809,,,,,,,,,,,,,,,,068,001,2023-05-02_12h09.23.391,exp_g1,2022.2.5,None,
94.0,l1,f,sp,na,../audio/094.wav,,l1_f_sp_na_094,,,,,,,../image/beer.png,../image/horchata.png,beer,lshift,1,beer,horchata,beer,horchata,None,,,,,,,,,,0,9,9,33,,,,,,,,,,,,,,,,,,,122.59837495791726,122.79872204200365,lshift,1,4.10174158308655,122.83957179193385,123.55608291662453,,,,,,,,,,,,,,,,068,001,2023-05-02_12h09.23.391,exp_g1,2022.2.5,None,
88.0,l1,f,sp,na,../audio/088.wav,,l1_f_sp_na_088,,,,,,,../image/book.png,../image/cellphone.png,book,lshift,1,book,cellphone,book,cellphone,None,,,,,,,,,,0,10,10,27,,,,,,,,,,,,,,,,,,,126.9534950829111,127.15661041694693,lshift,1,2.457395124947652,127.19901504192967,127.91598733357775,,,,,,,,,,,,,,,,068,001,2023-05-02_12h09.23.391,exp_g1,2022.2.5,None,
61.0,l1,f,en,na,../audio/061.wav,,l1_f_en_na_061,,,,,,,../image/cat.png,../image/dog.png,dog,rshift,1,dog,cat,cat,dog,../image/,,,,,,,,,,0,11,11,0,,,,,,,,,,,,,,,,,,,129.65974062494934,129.86542604200076,rshift,1,2.153764082933776,129.90647166699637,130.62283383362617,,,,,,,,,,,,,,,,068,001,2023-05-02_12h09.23.391,exp_g1,2022.2.5,None,
73.0,l1,f,en,na,../audio/073.wav,,l1_f_en_na_073,,,,,,,../image/socks.png,../image/tshirt.png,tshirt,rshift,1,tshirt,socks,socks,tshirt,None,,,,,,,,,,0,12,12,12,,,,,,,,,,,,,,,,,,,132.0608093329938,132.27322708291467,rshift,1,2.3046848750673234,132.30604429193772,133.02272749966167,,,,,,,,,,,,,,,,068,001,2023-05-02_12h09.23.391,exp_g1,2022.2.5,None,
91.0,l1,f,sp,na,../audio/091.wav,,l1_f_sp_na_091,,,,,,,../image/backpack.png,../image/bracelet.png,bracelet,rshift,1,bracelet,backpack,backpack,bracelet,None,,,,,,,,,,0,13,13,30,,,,,,,,,,,,,,,,,,,134.63028049992863,134.83265966700856,lshift,0,2.6515762909548357,134.87255266692955,135.58985074964974,,,,,,,,,,,,,,,,068,001,2023-05-02_12h09.23.391,exp_g1,2022.2.5,None,
65.0,l1,f,en,na,../audio/065.wav,,l1_f_en_na_065,,,,,,,../image/computer.png,../image/book.png,book,rshift,1,book,computer,computer,book,None,,,,,,,,,,0,14,14,4,,,,,,,,,,,,,,,,,,,137.53616487490945,137.73954387498088,rshift,1,2.011527125025168,137.7828931249678,138.4893566246067,,,,,,,,,,,,,,,,068,001,2023-05-02_12h09.23.391,exp_g1,2022.2.5,None,
75.0,l1,f,en,na,../audio/075.wav,,l1_f_en_na_075,,,,,,,../image/dog.png,../image/fish.png,fish,rshift,1,fish,dog,dog,fish,None,,,,,,,,,,0,15,15,14,,,,,,,,,,,,,,,,,,,139.79952358291484,140.0066821249202,rshift,1,2.4409318329999223,140.03946254192851,140.7649232915758,,,,,,,,,,,,,,,,068,001,2023-05-02_12h09.23.391,exp_g1,2022.2.5,None,
139.0,l1,t,es,f0u,../audio/139.wav,,l1_t_es_f0u_139,,,,,,,../image/restaurant.png,../image/hotel.png,restaurant,lshift,1,restaurant,hotel,restaurant,hotel,None,,,,,,,,,,0,16,16,53,,,,,,,,,,,,,,,,,,,142.50313604192343,142.69835687498562,lshift,1,2.8433285830542445,142.74917383294087,143.45625329163548,,,,,,,,,,,,,,,,068,001,2023-05-02_12h09.23.391,exp_g1,2022.2.5,None,
17.0,l1,t,es,na,../audio/017.wav,,l1_t_es_na_017,,,,,,,../image/jug.png,../image/cat.png,jug,lshift,1,jug,cat,jug,cat,None,,,,,,,,,,0,17,17,41,,,,,,,,,,,,,,,,,,,145.59451074991375,145.79972841695417,lshift,1,3.812655832967721,145.8394488749327,146.55577512464177,,,,,,,,,,,,,,,,068,001,2023-05-02_12h09.23.391,exp_g1,2022.2.5,None,
15.0,l1,t,es,na,../audio/015.wav,,l1_t_es_na_015,,,,,,,../image/glasses.png,../image/jacket.png,glasses,lshift,1,glasses,jacket,glasses,jacket,None,,,,,,,,,,0,18,18,39,,,,,,,,,,,,,,,,,,,149.6608109169174,149.86617212498095,lshift,1,4.833840915933251,149.9061017499771,150.62078587460954,,,,,,,,,,,,,,,,068,001,2023-05-02_12h09.23.391,exp_g1,2022.2.5,None,
135.0,l1,t,es,f0u,../audio/135.wav,,l1_t_es_f0u_135,,,,,,,../image/flipflops.png,../image/flower.png,flipflops,lshift,1,flipflops,flower,flipflops,flower,None,,,,,,,,,,0,19,19,49,,,,,,,,,,,,,,,,,,,154.74691599991638,154.94951737497468,lshift,1,2.400553999003023,154.98972620791756,155.70577891666133,,,,,,,,,,,,,,,,068,001,2023-05-02_12h09.23.391,exp_g1,2022.2.5,None,
72.0,l1,f,en,na,../audio/072.wav,,l1_f_en_na_072,,,,,,,../image/dog.png,../image/fish.png,dog,lshift,1,dog,fish,dog,fish,None,,,,,,,,,,0,20,20,11,,,,,,,,,,,,,,,,,,,157.3999666669406,157.60631212498993,lshift,1,2.2305397499585524,157.6395062499214,158.36626774963614,,,,,,,,,,,,,,,,068,001,2023-05-02_12h09.23.391,exp_g1,2022.2.5,None,
64.0,l1,f,en,na,../audio/064.wav,,l1_f_en_na_064,,,,,,,../image/wallet.png,../image/key.png,wallet,lshift,1,wallet,key,wallet,key,None,,,,,,,,,,0,21,21,3,,,,,,,,,,,,,,,,,,,159.884830166935,160.08988187497016,lshift,1,2.039571166038513,160.13274537492543,160.8496128746231,,,,,,,,,,,,,,,,068,001,2023-05-02_12h09.23.391,exp_g1,2022.2.5,None,
12.0,l1,t,es,na,../audio/012.wav,,l1_t_es_na_012,,,,,,,../image/newspaper.png,../image/book.png,book,rshift,1,book,newspaper,newspaper,book,None,,,,,,,,,,0,22,22,36,,,,,,,,,,,,,,,,,,,162.17462595796678,162.37281295796856,rshift,1,2.8559895829530433,162.42071454192046,163.1326873746623,,,,,,,,,,,,,,,,068,001,2023-05-02_12h09.23.391,exp_g1,2022.2.5,None,
132.0,l1,t,es,f0u,../audio/132.wav,,l1_t_es_f0u_132,,,,,,,../image/car.png,../image/grandma.png,grandma,rshift,1,grandma,car,car,grandma,None,,,,,,,,,,0,23,23,46,,,,,,,,,,,,,,,,,,,165.27729720796924,165.48177162499633,rshift,1,2.55330808297731,165.52089945797343,166.23961604159948,,,,,,,,,,,,,,,,068,001,2023-05-02_12h09.23.391,exp_g1,2022.2.5,None,
85.0,l1,f,se,na,../audio/085.wav,,l1_f_se_na_085,,,,,,,../image/loafers.png,../image/sneakers.png,sneakers,rshift,1,sneakers,loafers,loafers,sneakers,None,,,,,,,,,,0,24,24,24,,,,,,,,,,,,,,,,,,,168.08771704195533,168.28957329201512,rshift,1,3.477117082918994,168.33294362493325,169.04897562467184,,,,,,,,,,,,,,,,068,001,2023-05-02_12h09.23.391,exp_g1,2022.2.5,None,
80.0,l1,f,se,na,../audio/080.wav,,l1_f_se_na_080,,,,,,,../image/mouse.png,../image/rat.png,mouse,lshift,1,mouse,rat,mouse,rat,None,,,,,,,,,,0,25,25,19,,,,,,,,,,,,,,,,,,,171.81743516691495,172.022858332959,rshift,0,2.3438974579330534,172.06631420797203,172.7828549586159,,,,,,,,,,,,,,,,068,001,2023-05-02_12h09.23.391,exp_g1,2022.2.5,None,
18.0,l1,t,es,na,../audio/018.wav,,l1_t_es_na_018,,,,,,,../image/cups.png,../image/napkins.png,napkins,rshift,1,napkins,cups,cups,napkins,None,,,,,,,,,,0,26,26,42,,,,,,,,,,,,,,,,,,,174.41902629192919,174.62316295795608,lshift,0,4.755610498948954,174.6660393329803,175.38275295863085,,,,,,,,,,,,,,,,068,001,2023-05-02_12h09.23.391,exp_g1,2022.2.5,None,
77.0,l1,f,se,na,../audio/077.wav,,l1_f_se_na_077,,,,,,,../image/mashedpotatoes.png,../image/donut.png,donut,rshift,1,donut,mashedpotatoes,mashedpotatoes,donut,None,,,,,,,,,,0,27,27,16,,,,,,,,,,,,,,,,,,,179.42659520800225,179.6316480829846,rshift,1,2.3454221239080653,179.67205666692462,180.38925079157733,,,,,,,,,,,,,,,,068,001,2023-05-02_12h09.23.391,exp_g1,2022.2.5,None,
83.0,l1,f,se,na,../audio/083.wav,,l1_f_se_na_083,,,,,,,../image/donut.png,../image/burger.png,burger,rshift,1,burger,donut,donut,burger,None,,,,,,,,,,0,28,28,22,,,,,,,,,,,,,,,,,,,182.03077204199508,182.23276874993462,rshift,1,2.5344860409386456,182.27162483299617,182.9883007086503,,,,,,,,,,,,,,,,068,001,2023-05-02_12h09.23.391,exp_g1,2022.2.5,None,
82.0,l1,f,se,na,../audio/082.wav,,l1_f_se_na_082,,,,,,,../image/mickeymouse.png,../image/spongebob.png,mickeymouse,lshift,1,mickeymouse,spongebob,mickeymouse,spongebob,None,,,,,,,,,,0,29,29,21,,,,,,,,,,,,,,,,,,,184.81679304200225,185.02269399992656,lshift,1,2.480618792003952,185.0556316250004,185.7826719165935,,,,,,,,,,,,,,,,068,001,2023-05-02_12h09.23.391,exp_g1,2022.2.5,None,
90.0,l1,f,sp,na,../audio/090.wav,,l1_f_sp_na_090,,,,,,,../image/bag.png,../image/bottle.png,bag,lshift,1,bag,bottle,bag,bottle,None,,,,,,,,,,0,30,30,29,,,,,,,,,,,,,,,,,,,187.5452053329209,187.74929216690361,lshift,1,2.4863172080367804,187.78606337495148,188.50509474968229,,,,,,,,,,,,,,,,068,001,2023-05-02_12h09.23.391,exp_g1,2022.2.5,None,
20.0,l1,t,es,na,../audio/020.wav,,l1_t_es_na_020,,,,,,,../image/cellphone.png,../image/backpack.png,backpack,rshift,1,backpack,cellphone,cellphone,backpack,None,,,,,,,,,,0,31,31,44,,,,,,,,,,,,,,,,,,,190.2875812499551,190.48944483301602,None,0,,190.5328592499718,191.24889308360096,195.53277695795987,,,,,,,,,,,,,,,068,001,2023-05-02_12h09.23.391,exp_g1,2022.2.5,None,
76.0,l1,f,se,na,../audio/076.wav,,l1_f_se_na_076,,,,,,,../image/hotdog.png,../image/burger.png,hotdog,lshift,1,hotdog,burger,hotdog,burger,None,,,,,,,,,,0,32,32,15,,,,,,,,,,,,,,,,,,,195.53277695795987,195.73940674995538,lshift,1,2.3857622490031645,195.7723453330109,196.49883908365544,,,,,,,,,,,,,,,,068,001,2023-05-02_12h09.23.391,exp_g1,2022.2.5,None,
93.0,l1,f,sp,na,../audio/093.wav,,l1_f_sp_na_093,,,,,,,../image/boy.png,../image/book.png,book,rshift,1,book,boy,boy,book,None,,,,,,,,,,0,33,33,32,,,,,,,,,,,,,,,,,,,198.1783883329481,198.38264591700863,rshift,1,2.2192054169718176,198.4223149169702,199.13903991663054,,,,,,,,,,,,,,,,068,001,2023-05-02_12h09.23.391,exp_g1,2022.2.5,None,
87.0,l1,f,sp,na,../audio/087.wav,,l1_f_sp_na_087,,,,,,,../image/desk.png,../image/bed.png,bed,rshift,1,bed,desk,desk,bed,None,,,,,,,,,,0,34,34,26,,,,,,,,,,,,,,,,,,,200.64947754191235,200.8561456669122,rshift,1,2.7532404579687864,200.8891785419546,201.61597166659,,,,,,,,,,,,,,,,068,001,2023-05-02_12h09.23.391,exp_g1,2022.2.5,None,
78.0,l1,f,se,na,../audio/078.wav,,l1_f_se_na_078,,,,,,,../image/airpods.png,../image/joycons.png,airpods,lshift,1,airpods,joycons,airpods,joycons,None,,,,,,,,,,0,35,35,17,,,,,,,,,,,,,,,,,,,203.65407495794352,203.8654171669623,lshift,1,2.284327583038248,203.89884166698903,204.62246570858795,,,,,,,,,,,,,,,,068,001,2023-05-02_12h09.23.391,exp_g1,2022.2.5,None,
95.0,l1,f,sp,na,../audio/095.wav,,l1_f_sp_na_095,,,,,,,../image/socks.png,../image/key.png,key,rshift,1,key,socks,socks,key,None,,,,,,,,,,0,36,36,34,,,,,,,,,,,,,,,,,,,206.19749237492215,206.40655679197516,rshift,1,2.8988480410771444,206.43920412496664,207.1662051246424,,,,,,,,,,,,,,,,068,001,2023-05-02_12h09.23.391,exp_g1,2022.2.5,None,
11.0,l1,t,es,na,../audio/011.wav,,l1_t_es_na_011,,,,,,,../image/armchair.png,../image/bed.png,armchair,lshift,1,armchair,bed,armchair,bed,None,,,,,,,,,,0,37,37,35,,,,,,,,,,,,,,,,,,,209.35718424990773,209.5560674999142,lshift,1,2.6669773739995435,209.6047514169477,210.31582654157344,,,,,,,,,,,,,,,,068,001,2023-05-02_12h09.23.391,exp_g1,2022.2.5,None,
74.0,l1,f,en,na,../audio/074.wav,,l1_f_en_na_074,,,,,,,../image/boy.png,../image/woman.png,boy,lshift,1,boy,woman,boy,woman,None,,,,,,,,,,0,38,38,13,,,,,,,,,,,,,,,,,,,212.2790059169056,212.48120137490332,lshift,1,1.8517204170348123,212.52013845799956,213.2390985416171,,,,,,,,,,,,,,,,068,001,2023-05-02_12h09.23.391,exp_g1,2022.2.5,None,
13.0,l1,t,es,na,../audio/013.wav,,l1_t_es_na_013,,,,,,,../image/beer.png,../image/wine.png,beer,lshift,1,beer,wine,beer,wine,None,,,,,,,,,,0,39,39,37,,,,,,,,,,,,,,,,,,,214.37802658299915,214.58912712498568,rshift,0,3.4185609999112785,214.6221750829136,215.34920958365936,,,,,,,,,,,,,,,,068,001,2023-05-02_12h09.23.391,exp_g1,2022.2.5,None,
136.0,l1,t,es,f0u,../audio/136.wav,,l1_t_es_f0u_136,,,,,,,../image/city.png,../image/village.png,village,rshift,1,village,city,city,village,None,,,,,,,,,,0,40,40,50,,,,,,,,,,,,,,,,,,,218.0607580000069,218.26593958295416,rshift,1,3.471286208019592,218.30538687494118,219.02270574967068,,,,,,,,,,,,,,,,068,001,2023-05-02_12h09.23.391,exp_g1,2022.2.5,None,
134.0,l1,t,es,f0u,../audio/134.wav,,l1_t_es_f0u_134,,,,,,,../image/basket.png,../image/truck.png,truck,rshift,1,truck,basket,basket,truck,None,,,,,,,,,,0,41,41,48,,,,,,,,,,,,,,,,,,,221.7861512079835,221.98237729200628,lshift,0,3.1264922079863027,222.03196474991273,222.74908074963994,,,,,,,,,,,,,,,,068,001,2023-05-02_12h09.23.391,exp_g1,2022.2.5,None,
86.0,l1,f,sp,na,../audio/086.wav,,l1_f_sp_na_086,,,,,,,../image/plates.png,../image/glasses.png,plates,lshift,1,plates,glasses,plates,glasses,None,,,,,,,,,,0,42,42,25,,,,,,,,,,,,,,,,,,,225.1552685420029,225.36586374999024,lshift,1,2.1841557080624625,225.4059230829589,226.12130749965243,,,,,,,,,,,,,,,,068,001,2023-05-02_12h09.23.391,exp_g1,2022.2.5,None,
66.0,l1,f,en,na,../audio/066.wav,,l1_f_en_na_066,,,,,,,../image/bag.png,../image/scarf.png,bag,lshift,1,bag,scarf,bag,scarf,None,,,,,,,,,,0,43,43,5,,,,,,,,,,,,,,,,,,,227.59940858301707,227.8058614579495,lshift,1,2.2513488329714164,227.83880499994848,228.56558870867983,,,,,,,,,,,,,,,,068,001,2023-05-02_12h09.23.391,exp_g1,2022.2.5,None,
63.0,l1,f,en,na,../audio/063.wav,,l1_f_en_na_063,,,,,,,../image/woman.png,../image/man.png,man,rshift,1,man,woman,woman,man,None,,,,,,,,,,0,44,44,2,,,,,,,,,,,,,,,,,,,230.11038408300374,230.30595595797058,rshift,1,1.7673205410828814,230.35553449997678,231.06577454164315,,,,,,,,,,,,,,,,068,001,2023-05-02_12h09.23.391,exp_g1,2022.2.5,None,
70.0,l1,f,en,na,../audio/070.wav,,l1_f_en_na_070,,,,,,,../image/computer.png,../image/bed.png,computer,lshift,1,computer,bed,computer,bed,None,,,,,,,,,,0,45,45,9,,,,,,,,,,,,,,,,,,,232.12991262495052,232.3322348749498,lshift,1,2.6721053749788553,232.3724862500094,233.08923379163414,,,,,,,,,,,,,,,,068,001,2023-05-02_12h09.23.391,exp_g1,2022.2.5,None,
71.0,l1,f,en,na,../audio/071.wav,,l1_f_en_na_071,,,,,,,../image/wallet.png,../image/plane.png,plane,rshift,1,plane,wallet,wallet,plane,None,,,,,,,,,,0,46,46,10,,,,,,,,,,,,,,,,,,,235.05149791692384,235.25471362494864,rshift,1,2.705067625036463,235.29897316696588,236.01571149967302,,,,,,,,,,,,,,,,068,001,2023-05-02_12h09.23.391,exp_g1,2022.2.5,None,
19.0,l1,t,es,na,../audio/019.wav,,l1_t_es_na_019,,,,,,,../image/boy.png,../image/dog.png,boy,lshift,1,boy,dog,boy,dog,None,,,,,,,,,,0,47,47,43,,,,,,,,,,,,,,,,,,,238.01241062500048,238.21552183292806,lshift,1,3.1254306660266593,238.25245679193176,238.97220508364651,,,,,,,,,,,,,,,,068,001,2023-05-02_12h09.23.391,exp_g1,2022.2.5,None,
84.0,l1,f,se,na,../audio/084.wav,,l1_f_se_na_084,,,,,,,../image/penthouse.png,../image/rocket.png,penthouse,lshift,1,penthouse,rocket,penthouse,rocket,None,,,,,,,,,,0,48,48,23,,,,,,,,,,,,,,,,,,,241.3936499999836,241.59903916693293,lshift,1,2.791592249996029,241.63803358294535,242.35578524967812,,,,,,,,,,,,,,,,068,001,2023-05-02_12h09.23.391,exp_g1,2022.2.5,None,
16.0,l1,t,es,na,../audio/016.wav,,l1_t_es_na_016,,,,,,,../image/flipflops.png,../image/bag.png,bag,rshift,1,bag,flipflops,flipflops,bag,None,,,,,,,,,,0,49,49,40,,,,,,,,,,,,,,,,,,,244.4445915420074,244.64888137497474,rshift,1,3.373792083002627,244.6886649999069,245.406305958579,,,,,,,,,,,,,,,,068,001,2023-05-02_12h09.23.391,exp_g1,2022.2.5,None,
137.0,l1,t,es,f0u,../audio/137.wav,,l1_t_es_f0u_137,,,,,,,../image/jacket.png,../image/shirt.png,jacket,lshift,1,jacket,shirt,jacket,shirt,None,,,,,,,,,,0,50,50,51,,,,,,,,,,,,,,,,,,,248.07151379191782,248.2724352919031,lshift,1,2.2724293750943616,248.31556262494996,249.03740829165716,,,,,,,,,,,,,,,,068,001,2023-05-02_12h09.23.391,exp_g1,2022.2.5,None,
133.0,l1,t,es,f0u,../audio/133.wav,,l1_t_es_f0u_133,,,,,,,../image/cellphone.png,../image/book.png,cellphone,lshift,1,cellphone,book,cellphone,book,None,,,,,,,,,,0,51,51,47,,,,,,,,,,,,,,,,,,,250.59318879200146,250.79851875000168,lshift,1,2.556124708033167,250.83896037493832,251.553320958574,,,,,,,,,,,,,,,,068,001,2023-05-02_12h09.23.391,exp_g1,2022.2.5,None,
68.0,l1,f,en,na,../audio/068.wav,,l1_f_en_na_068,,,,,,,../image/socks.png,../image/book.png,socks,lshift,1,socks,book,socks,book,None,,,,,,,,,,0,52,52,7,,,,,,,,,,,,,,,,,,,253.40116058301646,253.61426708300132,lshift,1,2.4025395000353456,253.64745479193516,254.3656207086208,,,,,,,,,,,,,,,,068,001,2023-05-02_12h09.23.391,exp_g1,2022.2.5,None,
14.0,l1,t,es,na,../audio/014.wav,,l1_t_es_na_014,,,,,,,../image/book.png,../image/key.png,key,rshift,1,key,book,book,key,None,,,,,,,,,,0,53,53,38,,,,,,,,,,,,,,,,,,,256.0661839999957,256.2721450419631,rshift,1,2.6472321239998564,256.305237499997,257.0322980835956,,,,,,,,,,,,,,,,068,001,2023-05-02_12h09.23.391,exp_g1,2022.2.5,None,
62.0,l1,f,en,na,../audio/062.wav,,l1_f_en_na_062,,,,,,,../image/shoe.png,../image/ring.png,shoe,lshift,1,shoe,ring,shoe,ring,None,,,,,,,,,,0,54,54,1,,,,,,,,,,,,,,,,,,,258.96574574999977,259.17179120797664,lshift,1,2.1358515829779208,259.20255924994126,259.93230958359004,,,,,,,,,,,,,,,,068,001,2023-05-02_12h09.23.391,exp_g1,2022.2.5,None,
tr1,lt,tr,en,na,../practice_trial/audio/tr1.wav,Where are your kids?,lt_tr_en_na_tr1,-,-,-,-,-,-,../image/america.png,../image/spain.png,,,,,,,,,,,,,,,,,,,,,,0,0,0,0,0,0,0,0,,,,,,,,,,,,,,,,,,,276.6470227079699,276.837189916987,276.884902791935,277.5984380415796,281.86893712496385,['lshift'],[1.8343692499911413],,,,,,,,068,001,2023-05-02_12h09.23.391,exp_g1,2022.2.5,None,
tr2,lt,tr,en,na,../practice_trial/audio/tr2.wav,Who is buying my car?,lt_tr_en_na_tr2,-,-,-,-,-,-,../image/america.png,../image/spain.png,,,,,,,,,,,,,,,,,,,,,,0,0,0,0,0,1,1,1,,,,,,,,,,,,,,,,,,,281.86893712496385,282.08158233296126,282.11561974999495,282.84779483365514,287.10231870796997,"['lshift', 'lshift']","[2.0813080410007387, 3.5342229990055785]",,,,,,,,068,001,2023-05-02_12h09.23.391,exp_g1,2022.2.5,None,
tr3,lt,tr,sp,na,../practice_trial/audio/tr3.wav,¿Dónde está mi perro?,lt_tr_sp_na_tr3,-,-,-,-,-,-,../image/america.png,../image/spain.png,,,,,,,,,,,,,,,,,,,,,,0,0,0,0,0,2,2,2,,,,,,,,,,,,,,,,,,,287.10231870796997,287.3319743749453,287.3470933329081,288.0887708746052,292.35039337491617,['rshift'],[1.5004059580387548],,,,,,,,068,001,2023-05-02_12h09.23.391,exp_g1,2022.2.5,None,
tr4,lt,tr,sp,na,../practice_trial/audio/tr4.wav,¿De quién es la bolsa?,lt_tr_sp_na_tr4,-,-,-,-,-,-,../image/america.png,../image/spain.png,,,,,,,,,,,,,,,,,,,,,,0,0,0,0,0,3,3,3,,,,,,,,,,,,,,,,,,,292.35039337491617,292.5807712919777,292.59850891691167,293.3486150836727,297.60118437500205,['rshift'],[1.89210075000301],,,,,,,,068,001,2023-05-02_12h09.23.391,exp_g1,2022.2.5,None,
tr5,lt,tr,se,na,../practice_trial/audio/tr5.wav,¿Dónde encontraste sus donuts?,lt_tr_se_na_tr5,-,-,-,-,-,-,../image/america.png,../image/spain.png,,,,,,,,,,,,,,,,,,,,,,0,0,0,0,0,4,4,4,,,,,,,,,,,,,,,,,,,297.60118437500205,297.83103937492706,297.84808133298066,298.5884127086649,302.84616012498736,"['rshift', 'lshift']","[1.335766875068657, 3.385205417056568]",,,,,,,,068,001,2023-05-02_12h09.23.391,exp_g1,2022.2.5,None,
tr6,lt,tr,se,na,../practice_trial/audio/tr6.wav,¿Cuándo compraste tu sweater?,lt_tr_se_na_tr6,-,-,-,-,-,-,../image/america.png,../image/spain.png,,,,,,,,,,,,,,,,,,,,,,0,0,0,0,0,5,5,5,,,,,,,,,,,,,,,,,,,302.84616012498736,303.0814755829051,303.08828233298846,303.8383099996174,308.0983681669459,['rshift'],[1.9201453329296783],,,,,,,,068,001,2023-05-02_12h09.23.391,exp_g1,2022.2.5,None,
tr7,lt,tr,es,na,../practice_trial/audio/tr7.wav,Why do you have my camisa?,lt_tr_es_na_tr7,-,-,-,-,-,-,../image/america.png,../image/spain.png,,,,,,,,,,,,,,,,,,,,,,0,0,0,0,0,6,6,6,,,,,,,,,,,,,,,,,,,308.0983681669459,308.3380197919905,308.3380197919905,309.08807445859225,313.35486041696277,"['lshift', 'rshift']","[1.5466742080170661, 2.3065348329255357]",,,,,,,,068,001,2023-05-02_12h09.23.391,exp_g1,2022.2.5,None,
tr8,lt,tr,es,na,../practice_trial/audio/tr8.wav,Where did you find his chanclas?,lt_tr_es_na_tr8,-,-,-,-,-,-,../image/america.png,../image/spain.png,,,,,,,,,,,,,,,,,,,,,,0,0,0,0,0,7,7,7,,,,,,,,,,,,,,,,,,,313.35486041696277,313.58079708297737,313.59848779195454,314.33862895862353,318.5712121250108,"['lshift', 'rshift']","[1.9056187079986557, 2.490206249989569]",,,,,,,,068,001,2023-05-02_12h09.23.391,exp_g1,2022.2.5,None,
,,,,,,,,,,,,,,,,,,,,,,,,,,,,,,,,,,,,,0,0,0,0,,,,,,,,,,,,,,,,,,,,,,,,,,,,,,,,,,,,,068,001,2023-05-02_12h09.23.391,exp_g1,2022.2.5,None,
169.0,l2,t,es,f0c,../audio/169.wav,,l2_t_es_f0c_169,,,,,,,../image/america.png,../image/spain.png,,,2,america,spain,,,,1,,,,,,,,,,,,,,,,,,,,,0,0,0,53,,,,,,,,,,,,,,,,,,,,,,324.51898237492424,324.70389758294914,324.7639814169379,325.4550308336659,329.7212478329893,"['lshift', 'lshift', 'rshift']","[-0.7024588750209659, 1.5209029580000788, 2.857086666044779]",068,001,2023-05-02_12h09.23.391,exp_g1,2022.2.5,None,
113.0,l2,f,se,na,../audio/113.wav,,l2_f_se_na_113,,,,,,,../image/america.png,../image/spain.png,,,2,america,spain,,,,1,,,,,,,,,,,,,,,,,,,,,0,1,1,17,,,,,,,,,,,,,,,,,,,,,,329.7212478329893,329.9556058750022,329.96394954191055,330.7053056666084,334.98432362498716,['rshift'],[1.6279150419868529],068,001,2023-05-02_12h09.23.391,exp_g1,2022.2.5,None,
96.0,l2,f,en,na,../audio/096.wav,,l2_f_en_na_096,,,,,,,../image/america.png,../image/spain.png,,,2,america,spain,,,,None,,,,,,,,,,,,,,,,,,,,,0,2,2,0,,,,,,,,,,,,,,,,,,,,,,334.98432362498716,335.2049582499312,335.23167908296455,335.95457566663777,340.22260995791294,['lshift'],[1.436794166918844],068,001,2023-05-02_12h09.23.391,exp_g1,2022.2.5,None,
22.0,l2,t,es,na,../audio/022.wav,,l2_t_es_na_022,,,,,,,../image/america.png,../image/spain.png,,,2,america,spain,,,,1,,,,,,,,,,,,,,,,,,,,,0,3,3,36,,,,,,,,,,,,,,,,,,,,,,340.22260995791294,340.45497254200745,340.4648645829875,341.2046325415761,345.47435074998066,"['lshift', 'rshift']","[1.410625541000627, 2.219512208015658]",068,001,2023-05-02_12h09.23.391,exp_g1,2022.2.5,None,
161.0,l2,t,es,f0c,../audio/161.wav,,l2_t_es_f0c_161,,,,,,,../image/america.png,../image/spain.png,,,2,america,spain,,,,1,,,,,,,,,,,,,,,,,,,,,0,4,4,45,,,,,,,,,,,,,,,,,,,,,,345.47435074998066,345.7050815419061,345.7184745419072,346.4549457496653,350.71990249992814,"['lshift', 'rshift']","[1.8137124580098316, 2.4529573330655694]",068,001,2023-05-02_12h09.23.391,exp_g1,2022.2.5,None,
168.0,l2,t,es,f0c,../audio/168.wav,,l2_t_es_f0c_168,,,,,,,../image/america.png,../image/spain.png,,,2,america,spain,,,,1,,,,,,,,,,,,,,,,,,,,,0,5,5,52,,,,,,,,,,,,,,,,,,,,,,350.71990249992814,350.954452416976,350.9648544579977,351.7150323746648,355.9765475000022,"['lshift', 'rshift']","[1.5553736239671707, 2.5001145830610767]",068,001,2023-05-02_12h09.23.391,exp_g1,2022.2.5,None,
97.0,l2,f,en,na,../audio/097.wav,,l2_f_en_na_097,,,,,,,../image/america.png,../image/spain.png,,,2,america,spain,,,,None,,,,,,,,,,,,,,,,,,,,,0,6,6,1,,,,,,,,,,,,,,,,,,,,,,355.9765475000022,356.20540283294395,356.2191423329059,356.954695458586,361.2329104169039,['lshift'],[1.3278215000173077],068,001,2023-05-02_12h09.23.391,exp_g1,2022.2.5,None,
24.0,l2,t,es,na,../audio/024.wav,,l2_t_es_na_024,,,,,,,../image/america.png,../image/spain.png,,,2,america,spain,,,,1,,,,,,,,,,,,,,,,,,,,,0,7,7,38,,,,,,,,,,,,,,,,,,,,,,361.2329104169039,361.446742250002,361.47976775001734,362.2147955416624,366.46696483297274,"['lshift', 'rshift']","[1.419456540956162, 2.1246414160123095]",068,001,2023-05-02_12h09.23.391,exp_g1,2022.2.5,None,
117.0,l2,f,se,na,../audio/117.wav,,l2_f_se_na_117,,,,,,,../image/america.png,../image/spain.png,,,2,america,spain,,,,1,,,,,,,,,,,,,,,,,,,,,0,8,8,21,,,,,,,,,,,,,,,,,,,,,,366.46696483297274,366.6983844169881,366.7150282500079,367.464837666663,371.72144787490834,"['rshift', 'lshift']","[1.2898442499572411, 2.9009262500330806]",068,001,2023-05-02_12h09.23.391,exp_g1,2022.2.5,None,
125,l2,f,sp,na,../audio/125.wav,,l2_f_sp_na_125,,,,,,,../image/america.png,../image/spain.png,,,2,america,spain,,,,None,,,,,,,,,,,,,,,,,,,,,0,9,9,29,,,,,,,,,,,,,,,,,,,,,,371.72144787490834,371.95499866700266,371.96385299996473,372.70489070861754,376.9860030829441,['rshift'],[1.6184799990151078],068,001,2023-05-02_12h09.23.391,exp_g1,2022.2.5,None,
101.0,l2,f,en,na,../audio/101.wav,,l2_f_en_na_101,,,,,,,../image/america.png,../image/spain.png,,,2,america,spain,,,,None,,,,,,,,,,,,,,,,,,,,,0,10,10,5,,,,,,,,,,,,,,,,,,,,,,376.9860030829441,377.2019552079728,377.2308745419141,377.96470449964204,382.22142587497365,['lshift'],[1.3342076670378447],068,001,2023-05-02_12h09.23.391,exp_g1,2022.2.5,None,
28.0,l2,t,es,na,../audio/028.wav,,l2_t_es_na_028,,,,,,,../image/america.png,../image/spain.png,,,2,america,spain,,,,1,,,,,,,,,,,,,,,,,,,,,0,11,11,42,,,,,,,,,,,,,,,,,,,,,,382.22142587497365,382.4543924169848,382.46475774992723,383.2047914995967,387.473069874919,"['lshift', 'rshift']","[1.2118508329149336, 2.4439619159093127]",068,001,2023-05-02_12h09.23.391,exp_g1,2022.2.5,None,
99.0,l2,f,en,na,../audio/099.wav,,l2_f_en_na_099,,,,,,,../image/america.png,../image/spain.png,,,2,america,spain,,,,None,,,,,,,,,,,,,,,,,,,,,0,12,12,3,,,,,,,,,,,,,,,,,,,,,,387.473069874919,387.7049992919201,387.71914045792073,388.46325954160807,392.7256229579216,['lshift'],[1.4111280409852043],068,001,2023-05-02_12h09.23.391,exp_g1,2022.2.5,None,
118.0,l2,f,se,na,../audio/118.wav,,l2_f_se_na_118,,,,,,,../image/america.png,../image/spain.png,,,2,america,spain,,,,1,,,,,,,,,,,,,,,,,,,,,0,13,13,22,,,,,,,,,,,,,,,,,,,,,,392.7256229579216,392.95471624995116,392.9690117499558,393.7147733335771,397.9691397079732,['rshift'],[1.510845832992345],068,001,2023-05-02_12h09.23.391,exp_g1,2022.2.5,None,
26.0,l2,t,es,na,../audio/026.wav,,l2_t_es_na_026,,,,,,,../image/america.png,../image/spain.png,,,2,america,spain,,,,1,,,,,,,,,,,,,,,,,,,,,0,14,14,40,,,,,,,,,,,,,,,,,,,,,,397.9691397079732,398.20554545801133,398.2145627499558,398.96465345862475,403.2309141670121,"['lshift', 'rshift']","[1.443544208072126, 2.517495125066489]",068,001,2023-05-02_12h09.23.391,exp_g1,2022.2.5,None,
116.0,l2,f,se,na,../audio/116.wav,,l2_f_se_na_116,,,,,,,../image/america.png,../image/spain.png,,,2,america,spain,,,,1,,,,,,,,,,,,,,,,,,,,,0,15,15,20,,,,,,,,,,,,,,,,,,,,,,403.2309141670121,403.45426466700155,403.4698929169681,404.2048829165908,408.4740464169299,['rshift'],[2.027894458035007],068,001,2023-05-02_12h09.23.391,exp_g1,2022.2.5,None,
30.0,l2,t,es,na,../audio/030.wav,,l2_t_es_na_030,,,,,,,../image/america.png,../image/spain.png,,,2,america,spain,,,,1,,,,,,,,,,,,,,,,,,,,,0,16,16,44,,,,,,,,,,,,,,,,,,,,,,408.4740464169299,408.7047897079028,408.7187974170083,409.463469958577,413.72302758297883,"['lshift', 'rshift']","[1.2947960420278832, 2.5099258749978617]",068,001,2023-05-02_12h09.23.391,exp_g1,2022.2.5,None,
120.0,l2,f,se,na,../audio/120.wav,,l2_f_se_na_120,,,,,,,../image/america.png,../image/spain.png,,,2,america,spain,,,,1,,,,,,,,,,,,,,,,,,,,,0,17,17,24,,,,,,,,,,,,,,,,,,,,,,413.72302758297883,413.95513725001365,413.9693749169819,414.7048229165996,418.9746432079701,['rshift'],[1.434259583009407],068,001,2023-05-02_12h09.23.391,exp_g1,2022.2.5,None,
170.0,l2,t,es,f0c,../audio/170.wav,,l2_t_es_f0c_170,,,,,,,../image/america.png,../image/spain.png,,,2,america,spain,,,,1,,,,,,,,,,,,,,,,,,,,,0,18,18,54,,,,,,,,,,,,,,,,,,,,,,418.9746432079701,419.2050626249984,419.21935324999504,419.96436833363646,424.23473712499253,"['lshift', 'rshift']","[1.390549375093542, 2.3334637080552056]",068,001,2023-05-02_12h09.23.391,exp_g1,2022.2.5,None,
167.0,l2,t,es,f0c,../audio/167.wav,,l2_t_es_f0c_167,,,,,,,../image/america.png,../image/spain.png,,,2,america,spain,,,,1,,,,,,,,,,,,,,,,,,,,,0,19,19,51,,,,,,,,,,,,,,,,,,,,,,424.23473712499253,424.45457591698505,424.4810525829671,425.204534166671,429.47218666691333,"['lshift', 'rshift']","[1.5410607079975307, 2.551621332997456]",068,001,2023-05-02_12h09.23.391,exp_g1,2022.2.5,None,
21.0,l2,t,es,na,../audio/021.wav,,l2_t_es_na_021,,,,,,,../image/america.png,../image/spain.png,,,2,america,spain,,,,1,,,,,,,,,,,,,,,,,,,,,0,20,20,35,,,,,,,,,,,,,,,,,,,,,,429.47218666691333,429.7047006249195,429.71366924990434,430.4644964995716,434.72011166694574,"['lshift', 'rshift']","[1.5685014999471605, 2.310467791976407]",068,001,2023-05-02_12h09.23.391,exp_g1,2022.2.5,None,
129.0,l2,f,sp,na,../audio/129.wav,,l2_f_sp_na_129,,,,,,,../image/america.png,../image/spain.png,,,2,america,spain,,,,None,,,,,,,,,,,,,,,,,,,,,0,21,21,33,,,,,,,,,,,,,,,,,,,,,,434.72011166694574,434.95443449995946,434.96440620790236,435.7138122086801,439.97612199990544,['rshift'],[1.4850142489885911],068,001,2023-05-02_12h09.23.391,exp_g1,2022.2.5,None,
102.0,l2,f,en,na,../audio/102.wav,,l2_f_en_na_102,,,,,,,../image/america.png,../image/spain.png,,,2,america,spain,,,,None,,,,,,,,,,,,,,,,,,,,,0,22,22,6,,,,,,,,,,,,,,,,,,,,,,439.97612199990544,440.20459770795424,440.2212029999355,440.96437870856994,445.2226668749936,['lshift'],[1.5041938329814002],068,001,2023-05-02_12h09.23.391,exp_g1,2022.2.5,None,
163.0,l2,t,es,f0c,../audio/163.wav,,l2_t_es_f0c_163,,,,,,,../image/america.png,../image/spain.png,,,2,america,spain,,,,1,,,,,,,,,,,,,,,,,,,,,0,23,23,47,,,,,,,,,,,,,,,,,,,,,,445.2226668749936,445.45406179199927,445.46906575001776,446.2138690415925,450.4706063749036,"['lshift', 'rshift']","[1.967455375008285, 3.2278869580477476]",068,001,2023-05-02_12h09.23.391,exp_g1,2022.2.5,None,
164.0,l2,t,es,f0c,../audio/164.wav,,l2_t_es_f0c_164,,,,,,,../image/america.png,../image/spain.png,,,2,america,spain,,,,1,,,,,,,,,,,,,,,,,,,,,0,24,24,48,,,,,,,,,,,,,,,,,,,,,,450.4706063749036,450.7018120829016,450.720739374985,451.46313812461835,455.7306981669972,"['lshift', 'rshift']","[1.6627742919372395, 2.3540242079179734]",068,001,2023-05-02_12h09.23.391,exp_g1,2022.2.5,None,
109.0,l2,f,en,na,../audio/109.wav,,l2_f_en_na_109,,,,,,,../image/america.png,../image/spain.png,,,2,america,spain,,,,None,,,,,,,,,,,,,,,,,,,,,0,25,25,13,,,,,,,,,,,,,,,,,,,,,,455.7306981669972,455.95469395793043,455.97067616693676,456.71350495861066,460.9813018749701,['lshift'],[1.2937887919833884],068,001,2023-05-02_12h09.23.391,exp_g1,2022.2.5,None,
29.0,l2,t,es,na,../audio/029.wav,,l2_t_es_na_029,,,,,,,../image/america.png,../image/spain.png,,,2,america,spain,,,,1,,,,,,,,,,,,,,,,,,,,,0,26,26,43,,,,,,,,,,,,,,,,,,,,,,460.9813018749701,461.203468499938,461.22026920795906,461.95466637466257,466.22083404194564,"['lshift', 'rshift']","[1.3111616669921204, 2.7384508749237284]",068,001,2023-05-02_12h09.23.391,exp_g1,2022.2.5,None,
123.0,l2,f,sp,na,../audio/123.wav,,l2_f_sp_na_123,,,,,,,../image/america.png,../image/spain.png,,,2,america,spain,,,,None,,,,,,,,,,,,,,,,,,,,,0,27,27,27,,,,,,,,,,,,,,,,,,,,,,466.22083404194564,466.4542614580132,466.4640625419561,467.21361449960773,471.48248729191255,['rshift'],[1.7446732909884304],068,001,2023-05-02_12h09.23.391,exp_g1,2022.2.5,None,
23.0,l2,t,es,na,../audio/023.wav,,l2_t_es_na_023,,,,,,,../image/america.png,../image/spain.png,,,2,america,spain,,,,1,,,,,,,,,,,,,,,,,,,,,0,28,28,37,,,,,,,,,,,,,,,,,,,,,,471.48248729191255,471.7046230419073,471.7307669169968,472.46362566663106,476.72226658300497,"['lshift', 'rshift']","[1.523934290977195, 2.2029066249961033]",068,001,2023-05-02_12h09.23.391,exp_g1,2022.2.5,None,
112.0,l2,f,se,na,../audio/112.wav,,l2_f_se_na_112,,,,,,,../image/america.png,../image/spain.png,,,2,america,spain,,,,1,,,,,,,,,,,,,,,,,,,,,0,29,29,16,,,,,,,,,,,,,,,,,,,,,,476.72226658300497,476.95417883293703,476.9693867919268,477.7129851246175,481.9801730419276,"['rshift', 'lshift']","[1.5314763740170747, 3.011779123917222]",068,001,2023-05-02_12h09.23.391,exp_g1,2022.2.5,None,
108.0,l2,f,en,na,../audio/108.wav,,l2_f_en_na_108,,,,,,,../image/america.png,../image/spain.png,,,2,america,spain,,,,None,,,,,,,,,,,,,,,,,,,,,0,30,30,12,,,,,,,,,,,,,,,,,,,,,,481.9801730419276,482.20409704197664,482.2199430000037,482.9635679996029,487.22329916700255,['lshift'],[2.8795268739340827],068,001,2023-05-02_12h09.23.391,exp_g1,2022.2.5,None,
122.0,l2,f,sp,na,../audio/122.wav,,l2_f_sp_na_122,,,,,,,../image/america.png,../image/spain.png,,,2,america,spain,,,,None,,,,,,,,,,,,,,,,,,,,,0,31,31,26,,,,,,,,,,,,,,,,,,,,,,487.22329916700255,487.45375250000507,487.4684099579463,488.21368145867405,492.4691139579518,['rshift'],[1.4446575000183657],068,001,2023-05-02_12h09.23.391,exp_g1,2022.2.5,None,
126.0,l2,f,sp,na,../audio/126.wav,,l2_f_sp_na_126,,,,,,,../image/america.png,../image/spain.png,,,2,america,spain,,,,None,,,,,,,,,,,,,,,,,,,,,0,32,32,30,,,,,,,,,,,,,,,,,,,,,,492.4691139579518,492.7028577919118,492.712643167004,493.46413233358567,497.72181333298795,['rshift'],[1.783076708088629],068,001,2023-05-02_12h09.23.391,exp_g1,2022.2.5,None,
128.0,l2,f,sp,na,../audio/128.wav,,l2_f_sp_na_128,,,,,,,../image/america.png,../image/spain.png,,,2,america,spain,,,,None,,,,,,,,,,,,,,,,,,,,,0,33,33,32,,,,,,,,,,,,,,,,,,,,,,497.72181333298795,497.9533569579944,497.9709925419884,498.71402691660137,502.9802174170036,['rshift'],[1.4989201669814065],068,001,2023-05-02_12h09.23.391,exp_g1,2022.2.5,None,
162.0,l2,t,es,f0c,../audio/162.wav,,l2_t_es_f0c_162,,,,,,,../image/america.png,../image/spain.png,,,2,america,spain,,,,1,,,,,,,,,,,,,,,,,,,,,0,34,34,46,,,,,,,,,,,,,,,,,,,,,,502.9802174170036,503.20165433292277,503.2292050829856,503.9638566666438,508.22102324990556,"['lshift', 'rshift']","[1.4376144169364125, 2.2853007919620723]",068,001,2023-05-02_12h09.23.391,exp_g1,2022.2.5,None,
124.0,l2,f,sp,na,../audio/124.wav,,l2_f_sp_na_124,,,,,,,../image/america.png,../image/spain.png,,,2,america,spain,,,,None,,,,,,,,,,,,,,,,,,,,,0,35,35,28,,,,,,,,,,,,,,,,,,,,,,508.22102324990556,508.4538956669858,508.46278362500016,509.21256658359584,513.4722080829088,['rshift'],[1.361303542042151],068,001,2023-05-02_12h09.23.391,exp_g1,2022.2.5,None,
105.0,l2,f,en,na,../audio/105.wav,,l2_f_en_na_105,,,,,,,../image/america.png,../image/spain.png,,,2,america,spain,,,,None,,,,,,,,,,,,,,,,,,,,,0,36,36,9,,,,,,,,,,,,,,,,,,,,,,513.4722080829088,513.7041846669745,513.7168830829905,514.4633734996353,518.7213178329403,['lshift'],[1.510995874996297],068,001,2023-05-02_12h09.23.391,exp_g1,2022.2.5,None,
165.0,l2,t,es,f0c,../audio/165.wav,,l2_t_es_f0c_165,,,,,,,../image/america.png,../image/spain.png,,,2,america,spain,,,,1,,,,,,,,,,,,,,,,,,,,,0,37,37,49,,,,,,,,,,,,,,,,,,,,,,518.7213178329403,518.9543787499424,518.9671146249166,519.7132034166173,523.9835105829407,"['lshift', 'rshift']","[1.6158061659662053, 2.182483748998493]",068,001,2023-05-02_12h09.23.391,exp_g1,2022.2.5,None,
127.0,l2,f,sp,na,../audio/127.wav,,l2_f_sp_na_127,,,,,,,../image/america.png,../image/spain.png,,,2,america,spain,,,,None,,,,,,,,,,,,,,,,,,,,,0,38,38,31,,,,,,,,,,,,,,,,,,,,,,523.9835105829407,524.2039763749344,524.2304525829386,524.9637324995749,529.2209338329267,['rshift'],[1.577273290953599],068,001,2023-05-02_12h09.23.391,exp_g1,2022.2.5,None,
166.0,l2,t,es,f0c,../audio/166.wav,,l2_t_es_f0c_166,,,,,,,../image/america.png,../image/spain.png,,,2,america,spain,,,,1,,,,,,,,,,,,,,,,,,,,,0,39,39,50,,,,,,,,,,,,,,,,,,,,,,529.2209338329267,529.4538980419748,529.4629301669775,530.2123723746665,534.4722461670171,"['lshift', 'rshift']","[1.4496714579872787, 3.0149214999983087]",068,001,2023-05-02_12h09.23.391,exp_g1,2022.2.5,None,
111.0,l2,f,se,na,../audio/111.wav,,l2_f_se_na_111,,,,,,,../image/america.png,../image/spain.png,,,2,america,spain,,,,1,,,,,,,,,,,,,,,,,,,,,0,40,40,15,,,,,,,,,,,,,,,,,,,,,,534.4722461670171,534.7036439579679,534.7191674169153,535.4636741246252,539.7233342919499,"['rshift', 'lshift']","[1.5104023749008775, 2.5199815419036895]",068,001,2023-05-02_12h09.23.391,exp_g1,2022.2.5,None,
27.0,l2,t,es,na,../audio/027.wav,,l2_t_es_na_027,,,,,,,../image/america.png,../image/spain.png,,,2,america,spain,,,,1,,,,,,,,,,,,,,,,,,,,,0,41,41,41,,,,,,,,,,,,,,,,,,,,,,539.7233342919499,539.9538898329483,539.9711252499837,540.7135748746261,544.9687672079308,"['lshift', 'rshift']","[1.693926875013858, 2.0729216660838574]",068,001,2023-05-02_12h09.23.391,exp_g1,2022.2.5,None,
25.0,l2,t,es,na,../audio/025.wav,,l2_t_es_na_025,,,,,,,../image/america.png,../image/spain.png,,,2,america,spain,,,,1,,,,,,,,,,,,,,,,,,,,,0,42,42,39,,,,,,,,,,,,,,,,,,,,,,544.9687672079308,545.2049116669223,545.2130328749772,545.9623896666492,550.2318167079939,"['lshift', 'rshift']","[1.398018499952741, 2.030454749939963]",068,001,2023-05-02_12h09.23.391,exp_g1,2022.2.5,None,
107.0,l2,f,en,na,../audio/107.wav,,l2_f_en_na_107,,,,,,,../image/america.png,../image/spain.png,,,2,america,spain,,,,None,,,,,,,,,,,,,,,,,,,,,0,43,43,11,,,,,,,,,,,,,,,,,,,,,,550.2318167079939,550.4542118749814,550.4804900420131,551.2122072496607,555.4724591670092,"['lshift', 'rshift']","[1.4194422489963472, 2.0945185830350965]",068,001,2023-05-02_12h09.23.391,exp_g1,2022.2.5,None,
114.0,l2,f,se,na,../audio/114.wav,,l2_f_se_na_114,,,,,,,../image/america.png,../image/spain.png,,,2,america,spain,,,,1,,,,,,,,,,,,,,,,,,,,,0,44,44,18,,,,,,,,,,,,,,,,,,,,,,555.4724591670092,555.7034896669211,555.719847499975,556.4635469996758,560.7327337919269,['rshift'],[1.821837417082861],068,001,2023-05-02_12h09.23.391,exp_g1,2022.2.5,None,
110.0,l2,f,en,na,../audio/110.wav,,l2_f_en_na_110,,,,,,,../image/america.png,../image/spain.png,,,2,america,spain,,,,None,,,,,,,,,,,,,,,,,,,,,0,45,45,14,,,,,,,,,,,,,,,,,,,,,,560.7327337919269,560.9534244999522,560.9800625420175,561.7134407086453,565.9689062919933,['lshift'],[1.541196292033419],068,001,2023-05-02_12h09.23.391,exp_g1,2022.2.5,None,
130.0,l2,f,sp,na,../audio/130.wav,,l2_f_sp_na_130,,,,,,,../image/america.png,../image/spain.png,,,2,america,spain,,,,None,,,,,,,,,,,,,,,,,,,,,0,46,46,34,,,,,,,,,,,,,,,,,,,,,,565.9689062919933,566.203399082995,566.2133791669039,566.9632285836308,571.2325188330142,['rshift'],[1.6162564170081168],068,001,2023-05-02_12h09.23.391,exp_g1,2022.2.5,None,
119.0,l2,f,se,na,../audio/119.wav,,l2_f_se_na_119,,,,,,,../image/america.png,../image/spain.png,,,2,america,spain,,,,1,,,,,,,,,,,,,,,,,,,,,0,47,47,23,,,,,,,,,,,,,,,,,,,,,,571.2325188330142,571.4534381669946,571.4800092919031,572.2135302916324,576.4716387919616,"['rshift', 'lshift']","[1.9042632909258828, 3.068747499026358]",068,001,2023-05-02_12h09.23.391,exp_g1,2022.2.5,None,
115.0,l2,f,se,na,../audio/115.wav,,l2_f_se_na_115,,,,,,,../image/america.png,../image/spain.png,,,2,america,spain,,,,1,,,,,,,,,,,,,,,,,,,,,0,48,48,19,,,,,,,,,,,,,,,,,,,,,,576.4716387919616,576.7035004579229,576.7200078750029,577.46337149962,581.7289067920065,['rshift'],[3.1347622079774737],068,001,2023-05-02_12h09.23.391,exp_g1,2022.2.5,None,
121.0,l2,f,sp,na,../audio/121.wav,,l2_f_sp_na_121,,,,,,,../image/america.png,../image/spain.png,,,2,america,spain,,,,None,,,,,,,,,,,,,,,,,,,,,0,49,49,25,,,,,,,,,,,,,,,,,,,,,,581.7289067920065,581.9532754169777,581.9686561250128,582.7135774585806,586.9684308329597,['rshift'],[1.6533059159992263],068,001,2023-05-02_12h09.23.391,exp_g1,2022.2.5,None,
106.0,l2,f,en,na,../audio/106.wav,,l2_f_en_na_106,,,,,,,../image/america.png,../image/spain.png,,,2,america,spain,,,,None,,,,,,,,,,,,,,,,,,,,,0,50,50,10,,,,,,,,,,,,,,,,,,,,,,586.9684308329597,587.2036480419338,587.212097999989,587.963172999622,592.232075167005,['lshift'],[1.370055083069019],068,001,2023-05-02_12h09.23.391,exp_g1,2022.2.5,None,
104.0,l2,f,en,na,../audio/104.wav,,l2_f_en_na_104,,,,,,,../image/america.png,../image/spain.png,,,2,america,spain,,,,None,,,,,,,,,,,,,,,,,,,,,0,51,51,8,,,,,,,,,,,,,,,,,,,,,,592.232075167005,592.4526496249018,592.4798999580089,593.21270245867,597.4718752079643,['lshift'],[1.9118039989843965],068,001,2023-05-02_12h09.23.391,exp_g1,2022.2.5,None,
100.0,l2,f,en,na,../audio/100.wav,,l2_f_en_na_100,,,,,,,../image/america.png,../image/spain.png,,,2,america,spain,,,,None,,,,,,,,,,,,,,,,,,,,,0,52,52,4,,,,,,,,,,,,,,,,,,,,,,597.4718752079643,597.7032929169945,597.719437166932,598.4633860836659,602.7213319169823,['lshift'],[1.362798624089919],068,001,2023-05-02_12h09.23.391,exp_g1,2022.2.5,None,
103.0,l2,f,en,na,../audio/103.wav,,l2_f_en_na_103,,,,,,,../image/america.png,../image/spain.png,,,2,america,spain,,,,None,,,,,,,,,,,,,,,,,,,,,0,53,53,7,,,,,,,,,,,,,,,,,,,,,,602.7213319169823,602.9532671669731,602.9678417919204,603.7131643746436,607.9726737919264,['lshift'],[1.7056617080233991],068,001,2023-05-02_12h09.23.391,exp_g1,2022.2.5,None,
98.0,l2,f,en,na,../audio/098.wav,,l2_f_en_na_098,,,,,,,../image/america.png,../image/spain.png,,,2,america,spain,,,,None,,,,,,,,,,,,,,,,,,,,,0,54,54,2,,,,,,,,,,,,,,,,,,,,,,607.9726737919264,608.2029361670138,608.2175817079842,608.963140208569,613.1949738749536,['lshift'],[1.793781540938653],068,001,2023-05-02_12h09.23.391,exp_g1,2022.2.5,None,
