num,list,cond,lang,type,sound_dir,phr,sent_code,mat,mat_num,emb_num,emb,cut,mat_f0_c,left,right,correct_img,correct_key,exp_num,image,image_alt,left_img,right_img,image_dir,cs,exp1_retrial.thisRepN,exp1_retrial.thisTrialN,exp1_retrial.thisN,exp1_retrial.thisIndex,exp1_trial_loop.thisRepN,exp1_trial_loop.thisTrialN,exp1_trial_loop.thisN,exp1_trial_loop.thisIndex,exp1_loop.thisRepN,exp1_loop.thisTrialN,exp1_loop.thisN,exp1_loop.thisIndex,exp2_retrial.thisRepN,exp2_retrial.thisTrialN,exp2_retrial.thisN,exp2_retrial.thisIndex,exp2_trial_loop.thisRepN,exp2_trial_loop.thisTrialN,exp2_trial_loop.thisN,exp2_trial_loop.thisIndex,exp2_loop.thisRepN,exp2_loop.thisTrialN,exp2_loop.thisN,exp2_loop.thisIndex,exp1_trial_key.started,exp1_trial_sound.started,exp1_trial_key.keys,exp1_trial_key.rt,exp1_key.started,exp1_key.keys,exp1_key.corr,exp1_key.rt,exp1_sound.started,exp2_trial_key.started,exp2_trial_sound.started,exp2_trial_key.keys,exp2_trial_key.rt,exp2_key.started,exp2_sound.started,exp2_key.keys,exp2_key.rt,participant,session,date,expName,psychopyVersion,frameRate
tr1,lt,tr,en,na,../practice_trial/audio/tr1.wav,Where are your kids?,lt_tr_en_na_tr1,-,-,-,-,-,-,../image/kids.png,../image/plates.png,kids,lshift,,,,,,,,0,0,0,0,0,0,0,0,,,,,,,,,,,,,,,,,16.32169308,17.25570417,['lshift'],[1.8359324170160107],,,,,,,,,,,,,,21,1,2023-04-20_13h33.25.605,exp_g1,2022.2.5,None
tr2,lt,tr,en,na,../practice_trial/audio/tr2.wav,Who is buying my car?,lt_tr_en_na_tr2,-,-,-,-,-,-,../image/bag.png,../image/car.png,car,rshift,,,,,,,,0,0,0,0,0,1,1,1,,,,,,,,,,,,,,,,,18.20531508,19.17327137,['rshift'],[2.112439666001592],,,,,,,,,,,,,,21,1,2023-04-20_13h33.25.605,exp_g1,2022.2.5,None
tr3,lt,tr,sp,na,../practice_trial/audio/tr3.wav,¿Dónde está mi perro?,lt_tr_sp_na_tr3,-,-,-,-,-,-,../image/dog.png,../image/grandma.png,dog,lshift,,,,,,,,0,0,0,0,0,2,2,2,,,,,,,,,,,,,,,,,20.36310529,21.32346667,['lshift'],[1.9816986250225455],,,,,,,,,,,,,,21,1,2023-04-20_13h33.25.605,exp_g1,2022.2.5,None
tr4,lt,tr,sp,na,../practice_trial/audio/tr4.wav,¿De quién es la bolsa?,lt_tr_sp_na_tr4,-,-,-,-,-,-,../image/shirt.png,../image/bag.png,bag,rshift,,,,,,,,0,0,0,0,0,3,3,3,,,,,,,,,,,,,,,,,22.38714212,23.35626104,['rshift'],[2.517944040999282],,,,,,,,,,,,,,21,1,2023-04-20_13h33.25.605,exp_g1,2022.2.5,None
tr5,lt,tr,se,na,../practice_trial/audio/tr5.wav,¿Dónde encontraste sus donuts?,lt_tr_se_na_tr5,-,-,-,-,-,-,../image/donut.png,../image/cups.png,donut,lshift,,,,,,,,0,0,0,0,0,4,4,4,,,,,,,,,,,,,,,,,24.95047629,25.91668992,['lshift'],[2.597298124979716],,,,,,,,,,,,,,21,1,2023-04-20_13h33.25.605,exp_g1,2022.2.5,None
tr6,lt,tr,se,na,../practice_trial/audio/tr6.wav,¿Cuándo compraste tu sweater?,lt_tr_se_na_tr6,-,-,-,-,-,-,../image/chair.png,../image/sweater.png,sweater,rshift,,,,,,,,0,0,0,0,0,5,5,5,,,,,,,,,,,,,,,,,27.59221508,28.54997325,['rshift'],[2.5376279579941183],,,,,,,,,,,,,,21,1,2023-04-20_13h33.25.605,exp_g1,2022.2.5,None
tr7,lt,tr,es,na,../practice_trial/audio/tr7.wav,Why do you have my camisa?,lt_tr_es_na_tr7,-,-,-,-,-,-,../image/shirt.png,../image/wallet.png,shirt,lshift,,,,,,,,0,0,0,0,0,6,6,6,,,,,,,,,,,,,,,,,30.17857871,31.13351333,['lshift'],[2.527285291987937],,,,,,,,,,,,,,21,1,2023-04-20_13h33.25.605,exp_g1,2022.2.5,None
tr8,lt,tr,es,na,../practice_trial/audio/tr8.wav,Where did you find his chanclas?,lt_tr_es_na_tr8,-,-,-,-,-,-,../image/key.png,../image/flipflops.png,flipflops,rshift,,,,,,,,0,0,0,0,0,7,7,7,,,,,,,,,,,,,,,,,32.75223587,33.71632383,['rshift'],[2.290787125006318],,,,,,,,,,,,,,21,1,2023-04-20_13h33.25.605,exp_g1,2022.2.5,None
,,,,,,,,,,,,,,,,,,,,,,,,,0,0,0,0,,,,,,,,,,,,,,,,,,,,,,,,,,,,,,,,,,,,,,21,1,2023-04-20_13h33.25.605,exp_g1,2022.2.5,None
19,l1,t,es,na,../audio/019.wav,,l1_t_es_na_019,,,,,,,../image/boy.png,../image/dog.png,boy,lshift,1,boy,dog,boy,dog,None,,,,,,,,,,0,0,0,43,,,,,,,,,,,,,,,,,41.94659221,lshift,1,-0.352787875,,,,,,,,,,21,1,2023-04-20_13h33.25.605,exp_g1,2022.2.5,None
133,l1,t,es,f0u,../audio/133.wav,,l1_t_es_f0u_133,,,,,,,../image/cellphone.png,../image/book.png,cellphone,lshift,1,cellphone,book,cellphone,book,None,,,,,,,,,,0,1,1,47,,,,,,,,,,,,,,,,,41.97511754,lshift,1,2.608014874,42.94936958,,,,,,,,,21,1,2023-04-20_13h33.25.605,exp_g1,2022.2.5,None
64,l1,f,en,na,../audio/064.wav,,l1_f_en_na_064,,,,,,,../image/wallet.png,../image/key.png,wallet,lshift,1,wallet,key,wallet,key,None,,,,,,,,,,0,2,2,3,,,,,,,,,,,,,,,,,44.62877737,lshift,1,1.938358374,45.58825133,,,,,,,,,21,1,2023-04-20_13h33.25.605,exp_g1,2022.2.5,None
135,l1,t,es,f0u,../audio/135.wav,,l1_t_es_f0u_135,,,,,,,../image/flipflops.png,../image/flower.png,flipflops,lshift,1,flipflops,flower,flipflops,flower,None,,,,,,,,,,0,3,3,49,,,,,,,,,,,,,,,,,46.61340604,lshift,1,2.496516375,47.58319187,,,,,,,,,21,1,2023-04-20_13h33.25.605,exp_g1,2022.2.5,None
140,l1,t,es,f0u,../audio/140.wav,,l1_t_es_f0u_140,,,,,,,../image/ring.png,../image/bracelet.png,bracelet,rshift,1,bracelet,ring,ring,bracelet,None,,,,,,,,,,0,4,4,54,,,,,,,,,,,,,,,,,49.15759508,rshift,1,3.549694833,50.12182267,,,,,,,,,21,1,2023-04-20_13h33.25.605,exp_g1,2022.2.5,None
80,l1,f,se,na,../audio/080.wav,,l1_f_se_na_080,,,,,,,../image/mouse.png,../image/rat.png,mouse,lshift,1,mouse,rat,mouse,rat,None,,,,,,,,,,0,5,5,19,,,,,,,,,,,,,,,,,52.76345479,lshift,1,2.221578833,53.72261612,,,,,,,,,21,1,2023-04-20_13h33.25.605,exp_g1,2022.2.5,None
66,l1,f,en,na,../audio/066.wav,,l1_f_en_na_066,,,,,,,../image/bag.png,../image/scarf.png,bag,lshift,1,bag,scarf,bag,scarf,None,,,,,,,,,,0,6,6,5,,,,,,,,,,,,,,,,,55.03469162,lshift,1,2.565590291,55.98970717,,,,,,,,,21,1,2023-04-20_13h33.25.605,exp_g1,2022.2.5,None
134,l1,t,es,f0u,../audio/134.wav,,l1_t_es_f0u_134,,,,,,,../image/basket.png,../image/truck.png,truck,rshift,1,truck,basket,basket,truck,None,,,,,,,,,,0,7,7,48,,,,,,,,,,,,,,,,,57.64900379,rshift,1,3.654803666,58.606083,,,,,,,,,21,1,2023-04-20_13h33.25.605,exp_g1,2022.2.5,None
85,l1,f,se,na,../audio/085.wav,,l1_f_se_na_085,,,,,,,../image/loafers.png,../image/sneakers.png,sneakers,rshift,1,sneakers,loafers,loafers,sneakers,None,,,,,,,,,,0,8,8,24,,,,,,,,,,,,,,,,,61.35496367,rshift,1,2.782168375,62.31647546,,,,,,,,,21,1,2023-04-20_13h33.25.605,exp_g1,2022.2.5,None
72,l1,f,en,na,../audio/072.wav,,l1_f_en_na_072,,,,,,,../image/dog.png,../image/fish.png,dog,lshift,1,dog,fish,dog,fish,None,,,,,,,,,,0,9,9,11,,,,,,,,,,,,,,,,,64.18178029,lshift,1,2.181172666,65.14991492,,,,,,,,,21,1,2023-04-20_13h33.25.605,exp_g1,2022.2.5,None
81,l1,f,se,na,../audio/081.wav,,l1_f_se_na_081,,,,,,,../image/boxers.png,../image/sweatpants.png,sweatpants,rshift,1,sweatpants,boxers,boxers,sweatpants,None,,,,,,,,,,0,10,10,20,,,,,,,,,,,,,,,,,66.41415954,lshift,0,3.181973208,67.37243092,,,,,,,,,21,1,2023-04-20_13h33.25.605,exp_g1,2022.2.5,None
76,l1,f,se,na,../audio/076.wav,,l1_f_se_na_076,,,,,,,../image/hotdog.png,../image/burger.png,hotdog,lshift,1,hotdog,burger,hotdog,burger,None,,,,,,,,,,0,11,11,15,,,,,,,,,,,,,,,,,69.64980517,lshift,1,2.283365124,70.60590621,,,,,,,,,21,1,2023-04-20_13h33.25.605,exp_g1,2022.2.5,None
79,l1,f,se,na,../audio/079.wav,,l1_f_se_na_079,,,,,,,../image/sweatpants.png,../image/jeans.png,jeans,rshift,1,jeans,sweatpants,sweatpants,jeans,None,,,,,,,,,,0,12,12,18,,,,,,,,,,,,,,,,,71.97664537,rshift,1,2.377318958,72.94969308,,,,,,,,,21,1,2023-04-20_13h33.25.605,exp_g1,2022.2.5,None
17,l1,t,es,na,../audio/017.wav,,l1_t_es_na_017,,,,,,,../image/jug.png,../image/cat.png,jug,lshift,1,jug,cat,jug,cat,None,,,,,,,,,,0,13,13,41,,,,,,,,,,,,,,,,,74.39913942,lshift,1,4.193076041,75.36663646,,,,,,,,,21,1,2023-04-20_13h33.25.605,exp_g1,2022.2.5,None
91,l1,f,sp,na,../audio/091.wav,,l1_f_sp_na_091,,,,,,,../image/backpack.png,../image/bracelet.png,bracelet,rshift,1,bracelet,backpack,backpack,bracelet,None,,,,,,,,,,0,14,14,30,,,,,,,,,,,,,,,,,78.64381233,lshift,0,2.674347458,79.60636396,,,,,,,,,21,1,2023-04-20_13h33.25.605,exp_g1,2022.2.5,None
11,l1,t,es,na,../audio/011.wav,,l1_t_es_na_011,,,,,,,../image/armchair.png,../image/bed.png,armchair,lshift,1,armchair,bed,armchair,bed,None,,,,,,,,,,0,15,15,35,,,,,,,,,,,,,,,,,81.36991679,lshift,1,3.037137666,82.33336712,,,,,,,,,21,1,2023-04-20_13h33.25.605,exp_g1,2022.2.5,None
93,l1,f,sp,na,../audio/093.wav,,l1_f_sp_na_093,,,,,,,../image/boy.png,../image/book.png,book,rshift,1,book,boy,boy,book,None,,,,,,,,,,0,16,16,32,,,,,,,,,,,,,,,,,84.45605462,rshift,1,2.223684541,85.415803,,,,,,,,,21,1,2023-04-20_13h33.25.605,exp_g1,2022.2.5,None
74,l1,f,en,na,../audio/074.wav,,l1_f_en_na_074,,,,,,,../image/boy.png,../image/woman.png,boy,lshift,1,boy,woman,boy,woman,None,,,,,,,,,,0,17,17,13,,,,,,,,,,,,,,,,,86.728832,lshift,1,1.890186125,87.68909904,,,,,,,,,21,1,2023-04-20_13h33.25.605,exp_g1,2022.2.5,None
18,l1,t,es,na,../audio/018.wav,,l1_t_es_na_018,,,,,,,../image/cups.png,../image/napkins.png,napkins,rshift,1,napkins,cups,cups,napkins,None,,,,,,,,,,0,18,18,42,,,,,,,,,,,,,,,,,88.66676271,rshift,1,3.050142166,89.63252442,,,,,,,,,21,1,2023-04-20_13h33.25.605,exp_g1,2022.2.5,None
69,l1,f,en,na,../audio/069.wav,,l1_f_en_na_069,,,,,,,../image/bag.png,../image/shirt.png,shirt,rshift,1,shirt,bag,bag,shirt,None,,,,,,,,,,0,19,19,8,,,,,,,,,,,,,,,,,91.76306404,rshift,1,2.358858541,92.73240854,,,,,,,,,21,1,2023-04-20_13h33.25.605,exp_g1,2022.2.5,None
70,l1,f,en,na,../audio/070.wav,,l1_f_en_na_070,,,,,,,../image/computer.png,../image/bed.png,computer,lshift,1,computer,bed,computer,bed,None,,,,,,,,,,0,20,20,9,,,,,,,,,,,,,,,,,94.16475508,lshift,1,2.470402167,95.13305233,,,,,,,,,21,1,2023-04-20_13h33.25.605,exp_g1,2022.2.5,None
86,l1,f,sp,na,../audio/086.wav,,l1_f_sp_na_086,,,,,,,../image/plates.png,../image/glasses.png,plates,lshift,1,plates,glasses,plates,glasses,None,,,,,,,,,,0,21,21,25,,,,,,,,,,,,,,,,,96.67968996,lshift,1,2.237794416,97.64952392,,,,,,,,,21,1,2023-04-20_13h33.25.605,exp_g1,2022.2.5,None
67,l1,f,en,na,../audio/067.wav,,l1_f_en_na_067,,,,,,,../image/beer.png,../image/glasses.png,glasses,rshift,1,glasses,beer,beer,glasses,None,,,,,,,,,,0,22,22,6,,,,,,,,,,,,,,,,,98.95970446,rshift,1,2.457005875,99.93280279,,,,,,,,,21,1,2023-04-20_13h33.25.605,exp_g1,2022.2.5,None
12,l1,t,es,na,../audio/012.wav,,l1_t_es_na_012,,,,,,,../image/newspaper.png,../image/book.png,book,rshift,1,book,newspaper,newspaper,book,None,,,,,,,,,,0,23,23,36,,,,,,,,,,,,,,,,,101.4675334,rshift,1,2.772565208,102.432784,,,,,,,,,21,1,2023-04-20_13h33.25.605,exp_g1,2022.2.5,None
14,l1,t,es,na,../audio/014.wav,,l1_t_es_na_014,,,,,,,../image/book.png,../image/key.png,key,rshift,1,key,book,book,key,None,,,,,,,,,,0,24,24,38,,,,,,,,,,,,,,,,,104.2820069,rshift,1,2.329284375,105.2491177,,,,,,,,,21,1,2023-04-20_13h33.25.605,exp_g1,2022.2.5,None
95,l1,f,sp,na,../audio/095.wav,,l1_f_sp_na_095,,,,,,,../image/socks.png,../image/key.png,key,rshift,1,key,socks,socks,key,None,,,,,,,,,,0,25,25,34,,,,,,,,,,,,,,,,,106.6524802,rshift,1,2.114414083,107.6161449,,,,,,,,,21,1,2023-04-20_13h33.25.605,exp_g1,2022.2.5,None
84,l1,f,se,na,../audio/084.wav,,l1_f_se_na_084,,,,,,,../image/penthouse.png,../image/rocket.png,penthouse,lshift,1,penthouse,rocket,penthouse,rocket,None,,,,,,,,,,0,26,26,23,,,,,,,,,,,,,,,,,108.8152994,lshift,1,2.789874708,109.7814109,,,,,,,,,21,1,2023-04-20_13h33.25.605,exp_g1,2022.2.5,None
78,l1,f,se,na,../audio/078.wav,,l1_f_se_na_078,,,,,,,../image/airpods.png,../image/joycons.png,airpods,lshift,1,airpods,joycons,airpods,joycons,None,,,,,,,,,,0,27,27,17,,,,,,,,,,,,,,,,,111.6418675,lshift,1,2.17911875,112.6062215,,,,,,,,,21,1,2023-04-20_13h33.25.605,exp_g1,2022.2.5,None
92,l1,f,sp,na,../audio/092.wav,,l1_f_sp_na_092,,,,,,,../image/armchair.png,../image/dog.png,armchair,lshift,1,armchair,dog,armchair,dog,None,,,,,,,,,,0,28,28,31,,,,,,,,,,,,,,,,,113.8683626,rshift,0,2.482131917,114.8310884,,,,,,,,,21,1,2023-04-20_13h33.25.605,exp_g1,2022.2.5,None
68,l1,f,en,na,../audio/068.wav,,l1_f_en_na_068,,,,,,,../image/socks.png,../image/book.png,socks,lshift,1,socks,book,socks,book,None,,,,,,,,,,0,29,29,7,,,,,,,,,,,,,,,,,116.3955983,lshift,1,2.371385541,117.3554743,,,,,,,,,21,1,2023-04-20_13h33.25.605,exp_g1,2022.2.5,None
139,l1,t,es,f0u,../audio/139.wav,,l1_t_es_f0u_139,,,,,,,../image/restaurant.png,../image/hotel.png,restaurant,lshift,1,restaurant,hotel,restaurant,hotel,None,,,,,,,,,,0,30,30,53,,,,,,,,,,,,,,,,,118.8184215,lshift,1,2.706876999,119.7815094,,,,,,,,,21,1,2023-04-20_13h33.25.605,exp_g1,2022.2.5,None
136,l1,t,es,f0u,../audio/136.wav,,l1_t_es_f0u_136,,,,,,,../image/city.png,../image/village.png,village,rshift,1,village,city,city,village,None,,,,,,,,,,0,31,31,50,,,,,,,,,,,,,,,,,121.5767431,rshift,1,2.894369542,122.5376671,,,,,,,,,21,1,2023-04-20_13h33.25.605,exp_g1,2022.2.5,None
13,l1,t,es,na,../audio/013.wav,,l1_t_es_na_013,,,,,,,../image/beer.png,../image/wine.png,beer,lshift,1,beer,wine,beer,wine,None,,,,,,,,,,0,32,32,37,,,,,,,,,,,,,,,,,124.5128171,lshift,1,2.792316416,125.472939,,,,,,,,,21,1,2023-04-20_13h33.25.605,exp_g1,2022.2.5,None
89,l1,f,sp,na,../audio/089.wav,,l1_f_sp_na_089,,,,,,,../image/bed.png,../image/wallet.png,wallet,rshift,1,wallet,bed,bed,wallet,None,,,,,,,,,,0,33,33,28,,,,,,,,,,,,,,,,,127.3514468,rshift,1,2.906676208,128.3155476,,,,,,,,,21,1,2023-04-20_13h33.25.605,exp_g1,2022.2.5,None
16,l1,t,es,na,../audio/016.wav,,l1_t_es_na_016,,,,,,,../image/flipflops.png,../image/bag.png,bag,rshift,1,bag,flipflops,flipflops,bag,None,,,,,,,,,,0,34,34,40,,,,,,,,,,,,,,,,,130.3082316,rshift,1,3.141361833,131.271958,,,,,,,,,21,1,2023-04-20_13h33.25.605,exp_g1,2022.2.5,None
94,l1,f,sp,na,../audio/094.wav,,l1_f_sp_na_094,,,,,,,../image/beer.png,../image/horchata.png,beer,lshift,1,beer,horchata,beer,horchata,None,,,,,,,,,,0,35,35,33,,,,,,,,,,,,,,,,,133.4963562,lshift,1,3.003093374,134.4541666,,,,,,,,,21,1,2023-04-20_13h33.25.605,exp_g1,2022.2.5,None
82,l1,f,se,na,../audio/082.wav,,l1_f_se_na_082,,,,,,,../image/mickeymouse.png,../image/spongebob.png,mickeymouse,lshift,1,mickeymouse,spongebob,mickeymouse,spongebob,None,,,,,,,,,,0,36,36,21,,,,,,,,,,,,,,,,,136.5402547,lshift,1,2.196681291,137.5052909,,,,,,,,,21,1,2023-04-20_13h33.25.605,exp_g1,2022.2.5,None
87,l1,f,sp,na,../audio/087.wav,,l1_f_sp_na_087,,,,,,,../image/desk.png,../image/bed.png,bed,rshift,1,bed,desk,desk,bed,None,,,,,,,,,,0,37,37,26,,,,,,,,,,,,,,,,,138.7850487,rshift,1,2.272128958,139.7490312,,,,,,,,,21,1,2023-04-20_13h33.25.605,exp_g1,2022.2.5,None
71,l1,f,en,na,../audio/071.wav,,l1_f_en_na_071,,,,,,,../image/wallet.png,../image/plane.png,plane,rshift,1,plane,wallet,wallet,plane,None,,,,,,,,,,0,38,38,10,,,,,,,,,,,,,,,,,141.0925161,rshift,1,2.678988708,142.0659613,,,,,,,,,21,1,2023-04-20_13h33.25.605,exp_g1,2022.2.5,None
88,l1,f,sp,na,../audio/088.wav,,l1_f_sp_na_088,,,,,,,../image/book.png,../image/cellphone.png,book,lshift,1,book,cellphone,book,cellphone,None,,,,,,,,,,0,39,39,27,,,,,,,,,,,,,,,,,143.817674,lshift,1,2.243434916,144.78212,,,,,,,,,21,1,2023-04-20_13h33.25.605,exp_g1,2022.2.5,None
90,l1,f,sp,na,../audio/090.wav,,l1_f_sp_na_090,,,,,,,../image/bag.png,../image/bottle.png,bag,lshift,1,bag,bottle,bag,bottle,None,,,,,,,,,,0,40,40,29,,,,,,,,,,,,,,,,,146.1038065,lshift,1,2.229867541,147.0698541,,,,,,,,,21,1,2023-04-20_13h33.25.605,exp_g1,2022.2.5,None
75,l1,f,en,na,../audio/075.wav,,l1_f_en_na_075,,,,,,,../image/dog.png,../image/fish.png,fish,rshift,1,fish,dog,dog,fish,None,,,,,,,,,,0,41,41,14,,,,,,,,,,,,,,,,,148.3799868,rshift,1,2.459466583,149.3491988,,,,,,,,,21,1,2023-04-20_13h33.25.605,exp_g1,2022.2.5,None
83,l1,f,se,na,../audio/083.wav,,l1_f_se_na_083,,,,,,,../image/donut.png,../image/burger.png,burger,rshift,1,burger,donut,donut,burger,None,,,,,,,,,,0,42,42,22,,,,,,,,,,,,,,,,,150.8959405,lshift,0,1.882661416,151.8544773,,,,,,,,,21,1,2023-04-20_13h33.25.605,exp_g1,2022.2.5,None
61,l1,f,en,na,../audio/061.wav,,l1_f_en_na_061,,,,,,,../image/cat.png,../image/dog.png,dog,rshift,1,dog,cat,cat,dog,../image/,,,,,,,,,,0,43,43,0,,,,,,,,,,,,,,,,,152.8250653,rshift,1,2.097813916,153.7877815,,,,,,,,,21,1,2023-04-20_13h33.25.605,exp_g1,2022.2.5,None
15,l1,t,es,na,../audio/015.wav,,l1_t_es_na_015,,,,,,,../image/glasses.png,../image/jacket.png,glasses,lshift,1,glasses,jacket,glasses,jacket,None,,,,,,,,,,0,44,44,39,,,,,,,,,,,,,,,,,154.9720605,lshift,1,3.173125333,155.9323812,,,,,,,,,21,1,2023-04-20_13h33.25.605,exp_g1,2022.2.5,None
63,l1,f,en,na,../audio/063.wav,,l1_f_en_na_063,,,,,,,../image/woman.png,../image/man.png,man,rshift,1,man,woman,woman,man,None,,,,,,,,,,0,45,45,2,,,,,,,,,,,,,,,,,158.1963577,rshift,1,2.126005,159.1555284,,,,,,,,,21,1,2023-04-20_13h33.25.605,exp_g1,2022.2.5,None
137,l1,t,es,f0u,../audio/137.wav,,l1_t_es_f0u_137,,,,,,,../image/jacket.png,../image/shirt.png,jacket,lshift,1,jacket,shirt,jacket,shirt,None,,,,,,,,,,0,46,46,51,,,,,,,,,,,,,,,,,160.3719722,lshift,1,2.187015333,161.3379731,,,,,,,,,21,1,2023-04-20_13h33.25.605,exp_g1,2022.2.5,None
20,l1,t,es,na,../audio/020.wav,,l1_t_es_na_020,,,,,,,../image/cellphone.png,../image/backpack.png,backpack,rshift,1,backpack,cellphone,cellphone,backpack,None,,,,,,,,,,0,47,47,44,,,,,,,,,,,,,,,,,162.6115444,rshift,1,2.490079291,163.5700073,,,,,,,,,21,1,2023-04-20_13h33.25.605,exp_g1,2022.2.5,None
131,l1,t,es,f0u,../audio/131.wav,,l1_t_es_f0u_131,,,,,,,../image/cat.png,../image/flower.png,cat,lshift,1,cat,flower,cat,flower,None,,,,,,,,,,0,48,48,45,,,,,,,,,,,,,,,,,165.1513307,lshift,1,2.078716041,166.115432,,,,,,,,,21,1,2023-04-20_13h33.25.605,exp_g1,2022.2.5,None
62,l1,f,en,na,../audio/062.wav,,l1_f_en_na_062,,,,,,,../image/shoe.png,../image/ring.png,shoe,lshift,1,shoe,ring,shoe,ring,None,,,,,,,,,,0,49,49,1,,,,,,,,,,,,,,,,,167.2762415,lshift,1,2.167530792,168.2383062,,,,,,,,,21,1,2023-04-20_13h33.25.605,exp_g1,2022.2.5,None
73,l1,f,en,na,../audio/073.wav,,l1_f_en_na_073,,,,,,,../image/socks.png,../image/tshirt.png,tshirt,rshift,1,tshirt,socks,socks,tshirt,None,,,,,,,,,,0,50,50,12,,,,,,,,,,,,,,,,,169.4871907,rshift,1,2.4068975,170.4546134,,,,,,,,,21,1,2023-04-20_13h33.25.605,exp_g1,2022.2.5,None
138,l1,t,es,f0u,../audio/138.wav,,l1_t_es_f0u_138,,,,,,,../image/pants.png,../image/shirt.png,shirt,rshift,1,shirt,pants,pants,shirt,None,,,,,,,,,,0,51,51,52,,,,,,,,,,,,,,,,,171.9385766,rshift,1,2.5029945,172.9047702,,,,,,,,,21,1,2023-04-20_13h33.25.605,exp_g1,2022.2.5,None
77,l1,f,se,na,../audio/077.wav,,l1_f_se_na_077,,,,,,,../image/mashedpotatoes.png,../image/donut.png,donut,rshift,1,donut,mashedpotatoes,mashedpotatoes,donut,None,,,,,,,,,,0,52,52,16,,,,,,,,,,,,,,,,,174.4937749,rshift,1,2.305369708,175.4490039,,,,,,,,,21,1,2023-04-20_13h33.25.605,exp_g1,2022.2.5,None
132,l1,t,es,f0u,../audio/132.wav,,l1_t_es_f0u_132,,,,,,,../image/car.png,../image/grandma.png,grandma,rshift,1,grandma,car,car,grandma,None,,,,,,,,,,0,53,53,46,,,,,,,,,,,,,,,,,176.8537625,rshift,1,3.235746624,177.8151536,,,,,,,,,21,1,2023-04-20_13h33.25.605,exp_g1,2022.2.5,None
65,l1,f,en,na,../audio/065.wav,,l1_f_en_na_065,,,,,,,../image/computer.png,../image/book.png,book,rshift,1,book,computer,computer,book,None,,,,,,,,,,0,54,54,4,,,,,,,,,,,,,,,,,180.1370885,rshift,1,1.938052583,181.0989507,,,,,,,,,21,1,2023-04-20_13h33.25.605,exp_g1,2022.2.5,None
tr1,lt,tr,en,na,../practice_trial/audio/tr1.wav,Where are your kids?,lt_tr_en_na_tr1,-,-,-,-,-,-,../image/america.png,../image/spain.png,,,,,,,,,,,,,,,,,,,,,,0,0,0,0,0,0,0,0,,,,,,,,,,,,,,204.1626763,205.1059205,"['lshift', 'lshift']","[1.90058258298086, 4.5425495830131695]",,,,,21,1,2023-04-20_13h33.25.605,exp_g1,2022.2.5,None
tr2,lt,tr,en,na,../practice_trial/audio/tr2.wav,Who is buying my car?,lt_tr_en_na_tr2,-,-,-,-,-,-,../image/america.png,../image/spain.png,,,,,,,,,,,,,,,,,,,,,,0,0,0,0,0,1,1,1,,,,,,,,,,,,,,209.1501263,210.1057677,['lshift'],[2.3000030409893952],,,,,21,1,2023-04-20_13h33.25.605,exp_g1,2022.2.5,None
tr3,lt,tr,sp,na,../practice_trial/audio/tr3.wav,¿Dónde está mi perro?,lt_tr_sp_na_tr3,-,-,-,-,-,-,../image/america.png,../image/spain.png,,,,,,,,,,,,,,,,,,,,,,0,0,0,0,0,2,2,2,,,,,,,,,,,,,,214.148858,215.1149204,['rshift'],[2.2229195830295794],,,,,21,1,2023-04-20_13h33.25.605,exp_g1,2022.2.5,None
tr4,lt,tr,sp,na,../practice_trial/audio/tr4.wav,¿De quién es la bolsa?,lt_tr_sp_na_tr4,-,-,-,-,-,-,../image/america.png,../image/spain.png,,,,,,,,,,,,,,,,,,,,,,0,0,0,0,0,3,3,3,,,,,,,,,,,,,,219.1486419,220.1054903,['rshift'],[2.5582070410018787],,,,,21,1,2023-04-20_13h33.25.605,exp_g1,2022.2.5,None
tr5,lt,tr,se,na,../practice_trial/audio/tr5.wav,¿Dónde encontraste sus donuts?,lt_tr_se_na_tr5,-,-,-,-,-,-,../image/america.png,../image/spain.png,,,,,,,,,,,,,,,,,,,,,,0,0,0,0,0,4,4,4,,,,,,,,,,,,,,224.1480222,225.1170002,['rshift'],[2.73189433303196],,,,,21,1,2023-04-20_13h33.25.605,exp_g1,2022.2.5,None
tr6,lt,tr,se,na,../practice_trial/audio/tr6.wav,¿Cuándo compraste tu sweater?,lt_tr_se_na_tr6,-,-,-,-,-,-,../image/america.png,../image/spain.png,,,,,,,,,,,,,,,,,,,,,,0,0,0,0,0,5,5,5,,,,,,,,,,,,,,229.1373896,230.1140316,['lshift'],[2.9785509989596903],,,,,21,1,2023-04-20_13h33.25.605,exp_g1,2022.2.5,None
tr7,lt,tr,es,na,../practice_trial/audio/tr7.wav,Why do you have my camisa?,lt_tr_es_na_tr7,-,-,-,-,-,-,../image/america.png,../image/spain.png,,,,,,,,,,,,,,,,,,,,,,0,0,0,0,0,6,6,6,,,,,,,,,,,,,,234.1462862,235.1157676,['rshift'],[2.653897667012643],,,,,21,1,2023-04-20_13h33.25.605,exp_g1,2022.2.5,None
tr8,lt,tr,es,na,../practice_trial/audio/tr8.wav,Where did you find his chanclas?,lt_tr_es_na_tr8,-,-,-,-,-,-,../image/america.png,../image/spain.png,,,,,,,,,,,,,,,,,,,,,,0,0,0,0,0,7,7,7,,,,,,,,,,,,,,239.1484978,240.115352,['rshift'],[2.9856937080039643],,,,,21,1,2023-04-20_13h33.25.605,exp_g1,2022.2.5,None
,,,,,,,,,,,,,,,,,,,,,,,,,,,,,,,,,,,,,0,0,0,0,,,,,,,,,,,,,,,,,,,,,,,,,,21,1,2023-04-20_13h33.25.605,exp_g1,2022.2.5,None
118,l2,f,se,na,../audio/118.wav,,l2_f_se_na_118,,,,,,,../image/america.png,../image/spain.png,,,2,america,spain,,,,1,,,,,,,,,,,,,,,,,,,,,0,0,0,22,,,,,,,,,,,,,,253.9317369,254.8713447,"['lshift', 'rshift']","[-0.370568458980415, 2.4290803329786286]",21,1,2023-04-20_13h33.25.605,exp_g1,2022.2.5,None
125,l2,f,sp,na,../audio/125.wav,,l2_f_sp_na_125,,,,,,,../image/america.png,../image/spain.png,,,2,america,spain,,,,None,,,,,,,,,,,,,,,,,,,,,0,1,1,29,,,,,,,,,,,,,,258.9051147,259.869904,['rshift'],[2.467539208009839],21,1,2023-04-20_13h33.25.605,exp_g1,2022.2.5,None
101,l2,f,en,na,../audio/101.wav,,l2_f_en_na_101,,,,,,,../image/america.png,../image/spain.png,,,2,america,spain,,,,None,,,,,,,,,,,,,,,,,,,,,0,2,2,5,,,,,,,,,,,,,,263.9060689,264.8700847,['lshift'],[2.761786375020165],21,1,2023-04-20_13h33.25.605,exp_g1,2022.2.5,None
27,l2,t,es,na,../audio/027.wav,,l2_t_es_na_027,,,,,,,../image/america.png,../image/spain.png,,,2,america,spain,,,,1,,,,,,,,,,,,,,,,,,,,,0,3,3,41,,,,,,,,,,,,,,268.9052947,269.8709342,['rshift'],[2.8630681239883415],21,1,2023-04-20_13h33.25.605,exp_g1,2022.2.5,None
117,l2,f,se,na,../audio/117.wav,,l2_f_se_na_117,,,,,,,../image/america.png,../image/spain.png,,,2,america,spain,,,,1,,,,,,,,,,,,,,,,,,,,,0,4,4,21,,,,,,,,,,,,,,273.9071599,274.8704844,['rshift'],[2.7991250830236822],21,1,2023-04-20_13h33.25.605,exp_g1,2022.2.5,None
102,l2,f,en,na,../audio/102.wav,,l2_f_en_na_102,,,,,,,../image/america.png,../image/spain.png,,,2,america,spain,,,,None,,,,,,,,,,,,,,,,,,,,,0,5,5,6,,,,,,,,,,,,,,278.9070813,279.8690952,['lshift'],[2.6921030409866944],21,1,2023-04-20_13h33.25.605,exp_g1,2022.2.5,None
29,l2,t,es,na,../audio/029.wav,,l2_t_es_na_029,,,,,,,../image/america.png,../image/spain.png,,,2,america,spain,,,,1,,,,,,,,,,,,,,,,,,,,,0,6,6,43,,,,,,,,,,,,,,283.9050532,284.8714615,['rshift'],[2.755495874036569],21,1,2023-04-20_13h33.25.605,exp_g1,2022.2.5,None
116,l2,f,se,na,../audio/116.wav,,l2_f_se_na_116,,,,,,,../image/america.png,../image/spain.png,,,2,america,spain,,,,1,,,,,,,,,,,,,,,,,,,,,0,7,7,20,,,,,,,,,,,,,,288.9050873,289.8687918,['rshift'],[3.0018509989604354],21,1,2023-04-20_13h33.25.605,exp_g1,2022.2.5,None
107,l2,f,en,na,../audio/107.wav,,l2_f_en_na_107,,,,,,,../image/america.png,../image/spain.png,,,2,america,spain,,,,None,,,,,,,,,,,,,,,,,,,,,0,8,8,11,,,,,,,,,,,,,,293.9039057,294.871783,['lshift'],[2.3554783330182545],21,1,2023-04-20_13h33.25.605,exp_g1,2022.2.5,None
109,l2,f,en,na,../audio/109.wav,,l2_f_en_na_109,,,,,,,../image/america.png,../image/spain.png,,,2,america,spain,,,,None,,,,,,,,,,,,,,,,,,,,,0,9,9,13,,,,,,,,,,,,,,298.9082712,299.8713456,['lshift'],[2.902211125008762],21,1,2023-04-20_13h33.25.605,exp_g1,2022.2.5,None
114,l2,f,se,na,../audio/114.wav,,l2_f_se_na_114,,,,,,,../image/america.png,../image/spain.png,,,2,america,spain,,,,1,,,,,,,,,,,,,,,,,,,,,0,10,10,18,,,,,,,,,,,,,,303.9033417,304.8690412,['rshift'],[3.4082041670335457],21,1,2023-04-20_13h33.25.605,exp_g1,2022.2.5,None
119,l2,f,se,na,../audio/119.wav,,l2_f_se_na_119,,,,,,,../image/america.png,../image/spain.png,,,2,america,spain,,,,1,,,,,,,,,,,,,,,,,,,,,0,11,11,23,,,,,,,,,,,,,,308.9061897,309.8717355,['lshift'],[3.3608220409951173],21,1,2023-04-20_13h33.25.605,exp_g1,2022.2.5,None
168,l2,t,es,f0c,../audio/168.wav,,l2_t_es_f0c_168,,,,,,,../image/america.png,../image/spain.png,,,2,america,spain,,,,1,,,,,,,,,,,,,,,,,,,,,0,12,12,52,,,,,,,,,,,,,,313.9050658,314.8711533,['rshift'],[2.4168157080421224],21,1,2023-04-20_13h33.25.605,exp_g1,2022.2.5,None
96,l2,f,en,na,../audio/096.wav,,l2_f_en_na_096,,,,,,,../image/america.png,../image/spain.png,,,2,america,spain,,,,None,,,,,,,,,,,,,,,,,,,,,0,13,13,0,,,,,,,,,,,,,,318.8925121,319.8686693,['lshift'],[2.2192961660330184],21,1,2023-04-20_13h33.25.605,exp_g1,2022.2.5,None
98,l2,f,en,na,../audio/098.wav,,l2_f_en_na_098,,,,,,,../image/america.png,../image/spain.png,,,2,america,spain,,,,None,,,,,,,,,,,,,,,,,,,,,0,14,14,2,,,,,,,,,,,,,,323.8932024,324.8712617,['lshift'],[2.305972667003516],21,1,2023-04-20_13h33.25.605,exp_g1,2022.2.5,None
124,l2,f,sp,na,../audio/124.wav,,l2_f_sp_na_124,,,,,,,../image/america.png,../image/spain.png,,,2,america,spain,,,,None,,,,,,,,,,,,,,,,,,,,,0,15,15,28,,,,,,,,,,,,,,328.9033043,329.8717536,"['lshift', 'rshift']","[2.2285417919629253, 2.6345513749984093]",21,1,2023-04-20_13h33.25.605,exp_g1,2022.2.5,None
103,l2,f,en,na,../audio/103.wav,,l2_f_en_na_103,,,,,,,../image/america.png,../image/spain.png,,,2,america,spain,,,,None,,,,,,,,,,,,,,,,,,,,,0,16,16,7,,,,,,,,,,,,,,333.9025816,334.8707862,['lshift'],[2.4132183749461547],21,1,2023-04-20_13h33.25.605,exp_g1,2022.2.5,None
23,l2,t,es,na,../audio/023.wav,,l2_t_es_na_023,,,,,,,../image/america.png,../image/spain.png,,,2,america,spain,,,,1,,,,,,,,,,,,,,,,,,,,,0,17,17,37,,,,,,,,,,,,,,338.9082211,339.8708404,['rshift'],[3.040092499984894],21,1,2023-04-20_13h33.25.605,exp_g1,2022.2.5,None
123,l2,f,sp,na,../audio/123.wav,,l2_f_sp_na_123,,,,,,,../image/america.png,../image/spain.png,,,2,america,spain,,,,None,,,,,,,,,,,,,,,,,,,,,0,18,18,27,,,,,,,,,,,,,,343.9073741,344.8715927,['rshift'],[2.662040708004497],21,1,2023-04-20_13h33.25.605,exp_g1,2022.2.5,None
169,l2,t,es,f0c,../audio/169.wav,,l2_t_es_f0c_169,,,,,,,../image/america.png,../image/spain.png,,,2,america,spain,,,,1,,,,,,,,,,,,,,,,,,,,,0,19,19,53,,,,,,,,,,,,,,348.9020339,349.868883,['rshift'],[2.9477837500162423],21,1,2023-04-20_13h33.25.605,exp_g1,2022.2.5,None
97,l2,f,en,na,../audio/097.wav,,l2_f_en_na_097,,,,,,,../image/america.png,../image/spain.png,,,2,america,spain,,,,None,,,,,,,,,,,,,,,,,,,,,0,20,20,1,,,,,,,,,,,,,,353.9034697,354.870816,['lshift'],[2.489506417012308],21,1,2023-04-20_13h33.25.605,exp_g1,2022.2.5,None
128,l2,f,sp,na,../audio/128.wav,,l2_f_sp_na_128,,,,,,,../image/america.png,../image/spain.png,,,2,america,spain,,,,None,,,,,,,,,,,,,,,,,,,,,0,21,21,32,,,,,,,,,,,,,,358.9026852,359.8704169,['rshift'],[2.549703542026691],21,1,2023-04-20_13h33.25.605,exp_g1,2022.2.5,None
127,l2,f,sp,na,../audio/127.wav,,l2_f_sp_na_127,,,,,,,../image/america.png,../image/spain.png,,,2,america,spain,,,,None,,,,,,,,,,,,,,,,,,,,,0,22,22,31,,,,,,,,,,,,,,363.9063287,364.8707706,['rshift'],[2.3943727079895325],21,1,2023-04-20_13h33.25.605,exp_g1,2022.2.5,None
164,l2,t,es,f0c,../audio/164.wav,,l2_t_es_f0c_164,,,,,,,../image/america.png,../image/spain.png,,,2,america,spain,,,,1,,,,,,,,,,,,,,,,,,,,,0,23,23,48,,,,,,,,,,,,,,368.9072968,369.8708655,['rshift'],[2.3318010419607162],21,1,2023-04-20_13h33.25.605,exp_g1,2022.2.5,None
25,l2,t,es,na,../audio/025.wav,,l2_t_es_na_025,,,,,,,../image/america.png,../image/spain.png,,,2,america,spain,,,,1,,,,,,,,,,,,,,,,,,,,,0,24,24,39,,,,,,,,,,,,,,373.9026307,374.8713171,['rshift'],[2.6650084580178373],21,1,2023-04-20_13h33.25.605,exp_g1,2022.2.5,None
110,l2,f,en,na,../audio/110.wav,,l2_f_en_na_110,,,,,,,../image/america.png,../image/spain.png,,,2,america,spain,,,,None,,,,,,,,,,,,,,,,,,,,,0,25,25,14,,,,,,,,,,,,,,378.902881,379.8681618,['lshift'],[2.7488971239654347],21,1,2023-04-20_13h33.25.605,exp_g1,2022.2.5,None
111,l2,f,se,na,../audio/111.wav,,l2_f_se_na_111,,,,,,,../image/america.png,../image/spain.png,,,2,america,spain,,,,1,,,,,,,,,,,,,,,,,,,,,0,26,26,15,,,,,,,,,,,,,,383.9071284,384.8706203,['rshift'],[3.07007233297918],21,1,2023-04-20_13h33.25.605,exp_g1,2022.2.5,None
161,l2,t,es,f0c,../audio/161.wav,,l2_t_es_f0c_161,,,,,,,../image/america.png,../image/spain.png,,,2,america,spain,,,,1,,,,,,,,,,,,,,,,,,,,,0,27,27,45,,,,,,,,,,,,,,388.9003133,389.8696127,['rshift'],[3.18493995803874],21,1,2023-04-20_13h33.25.605,exp_g1,2022.2.5,None
126,l2,f,sp,na,../audio/126.wav,,l2_f_sp_na_126,,,,,,,../image/america.png,../image/spain.png,,,2,america,spain,,,,None,,,,,,,,,,,,,,,,,,,,,0,28,28,30,,,,,,,,,,,,,,393.905256,394.8707959,['rshift'],[2.8261372490087524],21,1,2023-04-20_13h33.25.605,exp_g1,2022.2.5,None
100,l2,f,en,na,../audio/100.wav,,l2_f_en_na_100,,,,,,,../image/america.png,../image/spain.png,,,2,america,spain,,,,None,,,,,,,,,,,,,,,,,,,,,0,29,29,4,,,,,,,,,,,,,,398.9058005,399.870641,['lshift'],[3.122077666048426],21,1,2023-04-20_13h33.25.605,exp_g1,2022.2.5,None
106,l2,f,en,na,../audio/106.wav,,l2_f_en_na_106,,,,,,,../image/america.png,../image/spain.png,,,2,america,spain,,,,None,,,,,,,,,,,,,,,,,,,,,0,30,30,10,,,,,,,,,,,,,,403.9045094,404.8699468,['lshift'],[2.893615291977767],21,1,2023-04-20_13h33.25.605,exp_g1,2022.2.5,None
105,l2,f,en,na,../audio/105.wav,,l2_f_en_na_105,,,,,,,../image/america.png,../image/spain.png,,,2,america,spain,,,,None,,,,,,,,,,,,,,,,,,,,,0,31,31,9,,,,,,,,,,,,,,408.9034097,409.8686855,['lshift'],[2.99107308301609],21,1,2023-04-20_13h33.25.605,exp_g1,2022.2.5,None
165,l2,t,es,f0c,../audio/165.wav,,l2_t_es_f0c_165,,,,,,,../image/america.png,../image/spain.png,,,2,america,spain,,,,1,,,,,,,,,,,,,,,,,,,,,0,32,32,49,,,,,,,,,,,,,,413.9071507,414.8701416,['rshift'],[2.5803245419519953],21,1,2023-04-20_13h33.25.605,exp_g1,2022.2.5,None
120,l2,f,se,na,../audio/120.wav,,l2_f_se_na_120,,,,,,,../image/america.png,../image/spain.png,,,2,america,spain,,,,1,,,,,,,,,,,,,,,,,,,,,0,33,33,24,,,,,,,,,,,,,,418.9033145,419.871152,['lshift'],[2.866444291023072],21,1,2023-04-20_13h33.25.605,exp_g1,2022.2.5,None
162,l2,t,es,f0c,../audio/162.wav,,l2_t_es_f0c_162,,,,,,,../image/america.png,../image/spain.png,,,2,america,spain,,,,1,,,,,,,,,,,,,,,,,,,,,0,34,34,46,,,,,,,,,,,,,,423.9038984,424.8703453,['rshift'],[2.6667574990424328],21,1,2023-04-20_13h33.25.605,exp_g1,2022.2.5,None
166,l2,t,es,f0c,../audio/166.wav,,l2_t_es_f0c_166,,,,,,,../image/america.png,../image/spain.png,,,2,america,spain,,,,1,,,,,,,,,,,,,,,,,,,,,0,35,35,50,,,,,,,,,,,,,,428.9018627,429.8704219,['rshift'],[3.304525874031242],21,1,2023-04-20_13h33.25.605,exp_g1,2022.2.5,None
163,l2,t,es,f0c,../audio/163.wav,,l2_t_es_f0c_163,,,,,,,../image/america.png,../image/spain.png,,,2,america,spain,,,,1,,,,,,,,,,,,,,,,,,,,,0,36,36,47,,,,,,,,,,,,,,433.9042486,434.8700603,['rshift'],[3.3183547910302877],21,1,2023-04-20_13h33.25.605,exp_g1,2022.2.5,None
115,l2,f,se,na,../audio/115.wav,,l2_f_se_na_115,,,,,,,../image/america.png,../image/spain.png,,,2,america,spain,,,,1,,,,,,,,,,,,,,,,,,,,,0,37,37,19,,,,,,,,,,,,,,438.9030372,439.8683898,['lshift'],[4.3661045000189915],21,1,2023-04-20_13h33.25.605,exp_g1,2022.2.5,None
28,l2,t,es,na,../audio/028.wav,,l2_t_es_na_028,,,,,,,../image/america.png,../image/spain.png,,,2,america,spain,,,,1,,,,,,,,,,,,,,,,,,,,,0,38,38,42,,,,,,,,,,,,,,443.9068885,444.8705184,['rshift'],[2.866417540994007],21,1,2023-04-20_13h33.25.605,exp_g1,2022.2.5,None
112,l2,f,se,na,../audio/112.wav,,l2_f_se_na_112,,,,,,,../image/america.png,../image/spain.png,,,2,america,spain,,,,1,,,,,,,,,,,,,,,,,,,,,0,39,39,16,,,,,,,,,,,,,,448.9049127,449.8707074,['lshift'],[3.382463166024536],21,1,2023-04-20_13h33.25.605,exp_g1,2022.2.5,None
30,l2,t,es,na,../audio/030.wav,,l2_t_es_na_030,,,,,,,../image/america.png,../image/spain.png,,,2,america,spain,,,,1,,,,,,,,,,,,,,,,,,,,,0,40,40,44,,,,,,,,,,,,,,453.9056951,454.8698994,['rshift'],[2.992524624976795],21,1,2023-04-20_13h33.25.605,exp_g1,2022.2.5,None
122,l2,f,sp,na,../audio/122.wav,,l2_f_sp_na_122,,,,,,,../image/america.png,../image/spain.png,,,2,america,spain,,,,None,,,,,,,,,,,,,,,,,,,,,0,41,41,26,,,,,,,,,,,,,,458.9048285,459.8701588,['rshift'],[3.1325569169712253],21,1,2023-04-20_13h33.25.605,exp_g1,2022.2.5,None
113,l2,f,se,na,../audio/113.wav,,l2_f_se_na_113,,,,,,,../image/america.png,../image/spain.png,,,2,america,spain,,,,1,,,,,,,,,,,,,,,,,,,,,0,42,42,17,,,,,,,,,,,,,,463.9040287,464.8700287,['lshift'],[2.6882309580105357],21,1,2023-04-20_13h33.25.605,exp_g1,2022.2.5,None
99,l2,f,en,na,../audio/099.wav,,l2_f_en_na_099,,,,,,,../image/america.png,../image/spain.png,,,2,america,spain,,,,None,,,,,,,,,,,,,,,,,,,,,0,43,43,3,,,,,,,,,,,,,,468.9007184,469.8683441,['lshift'],[2.1534679169999436],21,1,2023-04-20_13h33.25.605,exp_g1,2022.2.5,None
26,l2,t,es,na,../audio/026.wav,,l2_t_es_na_026,,,,,,,../image/america.png,../image/spain.png,,,2,america,spain,,,,1,,,,,,,,,,,,,,,,,,,,,0,44,44,40,,,,,,,,,,,,,,473.9025718,474.8695742,['rshift'],[2.6904930000309832],21,1,2023-04-20_13h33.25.605,exp_g1,2022.2.5,None
167,l2,t,es,f0c,../audio/167.wav,,l2_t_es_f0c_167,,,,,,,../image/america.png,../image/spain.png,,,2,america,spain,,,,1,,,,,,,,,,,,,,,,,,,,,0,45,45,51,,,,,,,,,,,,,,478.9035723,479.8705361,['rshift'],[2.88650525000412],21,1,2023-04-20_13h33.25.605,exp_g1,2022.2.5,None
121,l2,f,sp,na,../audio/121.wav,,l2_f_sp_na_121,,,,,,,../image/america.png,../image/spain.png,,,2,america,spain,,,,None,,,,,,,,,,,,,,,,,,,,,0,46,46,25,,,,,,,,,,,,,,483.9047846,484.8701807,['rshift'],[2.6204154579900205],21,1,2023-04-20_13h33.25.605,exp_g1,2022.2.5,None
170,l2,t,es,f0c,../audio/170.wav,,l2_t_es_f0c_170,,,,,,,../image/america.png,../image/spain.png,,,2,america,spain,,,,1,,,,,,,,,,,,,,,,,,,,,0,47,47,54,,,,,,,,,,,,,,488.9020856,489.8697419,['rshift'],[2.8377124160178937],21,1,2023-04-20_13h33.25.605,exp_g1,2022.2.5,None
108,l2,f,en,na,../audio/108.wav,,l2_f_en_na_108,,,,,,,../image/america.png,../image/spain.png,,,2,america,spain,,,,None,,,,,,,,,,,,,,,,,,,,,0,48,48,12,,,,,,,,,,,,,,493.8903023,494.8699652,['lshift'],[2.574081832950469],21,1,2023-04-20_13h33.25.605,exp_g1,2022.2.5,None
22,l2,t,es,na,../audio/022.wav,,l2_t_es_na_022,,,,,,,../image/america.png,../image/spain.png,,,2,america,spain,,,,1,,,,,,,,,,,,,,,,,,,,,0,49,49,36,,,,,,,,,,,,,,498.8901857,499.8680295,['rshift'],[2.595971417031251],21,1,2023-04-20_13h33.25.605,exp_g1,2022.2.5,None
129,l2,f,sp,na,../audio/129.wav,,l2_f_sp_na_129,,,,,,,../image/america.png,../image/spain.png,,,2,america,spain,,,,None,,,,,,,,,,,,,,,,,,,,,0,50,50,33,,,,,,,,,,,,,,503.9020608,504.8701125,['rshift'],[3.862826833035797],21,1,2023-04-20_13h33.25.605,exp_g1,2022.2.5,None
104,l2,f,en,na,../audio/104.wav,,l2_f_en_na_104,,,,,,,../image/america.png,../image/spain.png,,,2,america,spain,,,,None,,,,,,,,,,,,,,,,,,,,,0,51,51,8,,,,,,,,,,,,,,508.9006552,509.8707858,['lshift'],[2.8692419169819914],21,1,2023-04-20_13h33.25.605,exp_g1,2022.2.5,None
130,l2,f,sp,na,../audio/130.wav,,l2_f_sp_na_130,,,,,,,../image/america.png,../image/spain.png,,,2,america,spain,,,,None,,,,,,,,,,,,,,,,,,,,,0,52,52,34,,,,,,,,,,,,,,513.902342,514.8692372,['rshift'],[2.2775062489672564],21,1,2023-04-20_13h33.25.605,exp_g1,2022.2.5,None
24,l2,t,es,na,../audio/024.wav,,l2_t_es_na_024,,,,,,,../image/america.png,../image/spain.png,,,2,america,spain,,,,1,,,,,,,,,,,,,,,,,,,,,0,53,53,38,,,,,,,,,,,,,,518.9025327,519.8695287,['rshift'],[2.624607208010275],21,1,2023-04-20_13h33.25.605,exp_g1,2022.2.5,None
21,l2,t,es,na,../audio/021.wav,,l2_t_es_na_021,,,,,,,../image/america.png,../image/spain.png,,,2,america,spain,,,,1,,,,,,,,,,,,,,,,,,,,,0,54,54,35,,,,,,,,,,,,,,523.906577,524.8690118,['rshift'],[2.1916062500094995],21,1,2023-04-20_13h33.25.605,exp_g1,2022.2.5,None