participant,session,date,expName,psychopyVersion,OS,frameRate,exp1_trial_key.keys,exp1_trial_key.rt,exp1_trial_loop.thisRepN,exp1_trial_loop.thisTrialN,exp1_trial_loop.thisN,exp1_trial_loop.thisIndex,exp1_trial_loop.ran,num,list,cond,lang,type,sound_dir,phr,sent_code,mat,mat_num,emb_num,emb,cut,mat_f0_c,left,right,correct_img,correct_key,exp1_key.keys,exp1_key.corr,exp1_key.rt,exp1_loop.thisRepN,exp1_loop.thisTrialN,exp1_loop.thisN,exp1_loop.thisIndex,exp1_loop.ran,exp_num,image,image_alt,left_img,right_img,image_dir,exp2_trial_key.keys,exp2_trial_key.rt,exp2_retrial.thisRepN,exp2_retrial.thisTrialN,exp2_retrial.thisN,exp2_retrial.thisIndex,exp2_retrial.ran,exp2_key.keys,exp2_key.rt,exp2_loop.thisRepN,exp2_loop.thisTrialN,exp2_loop.thisN,exp2_loop.thisIndex,exp2_loop.ran,cs
086,001,2023-09-19_11h05.55.100,exp_g1,2022.2.5,MacIntel,60.0024001,,,,,,,,,,,,,,,,,,,,,,,,,,,,,,,,,,,,,,,,,,,,,,,,,,,,,,
086,001,2023-09-19_11h05.55.100,exp_g1,2022.2.5,MacIntel,60.0024001,"[""lshift""]",[2.488399999856938],0,0,0,0,1,tr1,lt,tr,en,na,practice_trial/audio/tr1.wav,Where are your kids?,lt_tr_en_na_tr1,-,-,-,-,-,-,image/kids.png,image/plates.png,kids,lshift,,,,,,,,,,,,,,,,,,,,,,,,,,,,,
086,001,2023-09-19_11h05.55.100,exp_g1,2022.2.5,MacIntel,60.0024001,"[""rshift""]",[2.1999000000953686],0,1,1,1,1,tr2,lt,tr,en,na,practice_trial/audio/tr2.wav,Who is buying my car?,lt_tr_en_na_tr2,-,-,-,-,-,-,image/bag.png,image/car.png,car,rshift,,,,,,,,,,,,,,,,,,,,,,,,,,,,,
086,001,2023-09-19_11h05.55.100,exp_g1,2022.2.5,MacIntel,60.0024001,"[""lshift""]",[2.0859999999999985],0,2,2,2,1,tr3,lt,tr,sp,na,practice_trial/audio/tr3.wav,¿Dónde está mi perro?,lt_tr_sp_na_tr3,-,-,-,-,-,-,image/dog.png,image/grandma.png,dog,lshift,,,,,,,,,,,,,,,,,,,,,,,,,,,,,
086,001,2023-09-19_11h05.55.100,exp_g1,2022.2.5,MacIntel,60.0024001,"[""rshift""]",[2.5591000001430615],0,3,3,3,1,tr4,lt,tr,sp,na,practice_trial/audio/tr4.wav,¿De quién es la bolsa?,lt_tr_sp_na_tr4,-,-,-,-,-,-,image/shirt.png,image/bag.png,bag,rshift,,,,,,,,,,,,,,,,,,,,,,,,,,,,,
086,001,2023-09-19_11h05.55.100,exp_g1,2022.2.5,MacIntel,60.0024001,"[""lshift""]",[2.7192999999523266],0,4,4,4,1,tr5,lt,tr,se,na,practice_trial/audio/tr5.wav,¿Dónde encontraste sus donuts?,lt_tr_se_na_tr5,-,-,-,-,-,-,image/donut.png,image/cups.png,donut,lshift,,,,,,,,,,,,,,,,,,,,,,,,,,,,,
086,001,2023-09-19_11h05.55.100,exp_g1,2022.2.5,MacIntel,60.0024001,"[""rshift""]",[2.3732000000476745],0,5,5,5,1,tr6,lt,tr,se,na,practice_trial/audio/tr6.wav,¿Cuándo compraste tu sweater?,lt_tr_se_na_tr6,-,-,-,-,-,-,image/chair.png,image/sweater.png,sweater,rshift,,,,,,,,,,,,,,,,,,,,,,,,,,,,,
086,001,2023-09-19_11h05.55.100,exp_g1,2022.2.5,MacIntel,60.0024001,"[""lshift""]",[3.17660000014304],0,6,6,6,1,tr7,lt,tr,es,na,practice_trial/audio/tr7.wav,Why do you have my camisa?,lt_tr_es_na_tr7,-,-,-,-,-,-,image/shirt.png,image/wallet.png,shirt,lshift,,,,,,,,,,,,,,,,,,,,,,,,,,,,,
086,001,2023-09-19_11h05.55.100,exp_g1,2022.2.5,MacIntel,60.0024001,"[""rshift""]",[2.2414000000953678],0,7,7,7,1,tr8,lt,tr,es,na,practice_trial/audio/tr8.wav,Where did you find his chanclas?,lt_tr_es_na_tr8,-,-,-,-,-,-,image/key.png,image/flipflops.png,flipflops,rshift,,,,,,,,,,,,,,,,,,,,,,,,,,,,,
086,001,2023-09-19_11h05.55.100,exp_g1,2022.2.5,MacIntel,60.0024001,,,,,,,,,,,,,,,,,,,,,,,,,,,,,,,,,,,,,,,,,,,,,,,,,,,,,,
086,001,2023-09-19_11h05.55.100,exp_g1,2022.2.5,MacIntel,60.0024001,,,,,,,,070,l1,f,en,na,audio/070.wav,,l1_f_en_na_070,,,,,,,image/computer.png,image/bed.png,computer,lshift,lshift,1,2.6086,0,0,0,9,1,1,computer,bed,computer,bed,,,,,,,,,,,,,,,,
086,001,2023-09-19_11h05.55.100,exp_g1,2022.2.5,MacIntel,60.0024001,,,,,,,,011,l1,t,es,na,audio/011.wav,,l1_t_es_na_011,,,,,,,image/armchair.png,image/bed.png,armchair,lshift,lshift,1,2.6752,0,1,1,35,1,1,armchair,bed,armchair,bed,,,,,,,,,,,,,,,,
086,001,2023-09-19_11h05.55.100,exp_g1,2022.2.5,MacIntel,60.0024001,,,,,,,,094,l1,f,sp,na,audio/094.wav,,l1_f_sp_na_094,,,,,,,image/beer.png,image/horchata.png,beer,lshift,lshift,1,3.2915,0,2,2,33,1,1,beer,horchata,beer,horchata,,,,,,,,,,,,,,,,
086,001,2023-09-19_11h05.55.100,exp_g1,2022.2.5,MacIntel,60.0024001,,,,,,,,090,l1,f,sp,na,audio/090.wav,,l1_f_sp_na_090,,,,,,,image/bag.png,image/bottle.png,bag,lshift,lshift,1,2.2294,0,3,3,29,1,1,bag,bottle,bag,bottle,,,,,,,,,,,,,,,,
086,001,2023-09-19_11h05.55.100,exp_g1,2022.2.5,MacIntel,60.0024001,,,,,,,,089,l1,f,sp,na,audio/089.wav,,l1_f_sp_na_089,,,,,,,image/bed.png,image/wallet.png,wallet,rshift,lshift,0,2.3883,0,4,4,28,1,1,wallet,bed,bed,wallet,,,,,,,,,,,,,,,,
086,001,2023-09-19_11h05.55.100,exp_g1,2022.2.5,MacIntel,60.0024001,,,,,,,,082,l1,f,se,na,audio/082.wav,,l1_f_se_na_082,,,,,,,image/mickeymouse.png,image/spongebob.png,mickeymouse,lshift,lshift,1,2.1188,0,5,5,21,1,1,mickeymouse,spongebob,mickeymouse,spongebob,,,,,,,,,,,,,,,,
086,001,2023-09-19_11h05.55.100,exp_g1,2022.2.5,MacIntel,60.0024001,,,,,,,,017,l1,t,es,na,audio/017.wav,,l1_t_es_na_017,,,,,,,image/jug.png,image/cat.png,jug,lshift,lshift,1,2.9827,0,6,6,41,1,1,jug,cat,jug,cat,,,,,,,,,,,,,,,,
086,001,2023-09-19_11h05.55.100,exp_g1,2022.2.5,MacIntel,60.0024001,,,,,,,,013,l1,t,es,na,audio/013.wav,,l1_t_es_na_013,,,,,,,image/beer.png,image/wine.png,beer,lshift,lshift,1,3.3428,0,7,7,37,1,1,beer,wine,beer,wine,,,,,,,,,,,,,,,,
086,001,2023-09-19_11h05.55.100,exp_g1,2022.2.5,MacIntel,60.0024001,,,,,,,,067,l1,f,en,na,audio/067.wav,,l1_f_en_na_067,,,,,,,image/beer.png,image/glasses.png,glasses,rshift,rshift,1,2.23,0,8,8,6,1,1,glasses,beer,beer,glasses,,,,,,,,,,,,,,,,
086,001,2023-09-19_11h05.55.100,exp_g1,2022.2.5,MacIntel,60.0024001,,,,,,,,019,l1,t,es,na,audio/019.wav,,l1_t_es_na_019,,,,,,,image/boy.png,image/dog.png,boy,lshift,lshift,1,2.7747,0,9,9,43,1,1,boy,dog,boy,dog,,,,,,,,,,,,,,,,
086,001,2023-09-19_11h05.55.100,exp_g1,2022.2.5,MacIntel,60.0024001,,,,,,,,064,l1,f,en,na,audio/064.wav,,l1_f_en_na_064,,,,,,,image/wallet.png,image/key.png,wallet,lshift,lshift,1,1.7092,0,10,10,3,1,1,wallet,key,wallet,key,,,,,,,,,,,,,,,,
086,001,2023-09-19_11h05.55.100,exp_g1,2022.2.5,MacIntel,60.0024001,,,,,,,,134,l1,t,es,f0u,audio/134.wav,,l1_t_es_f0u_134,,,,,,,image/basket.png,image/truck.png,truck,rshift,rshift,1,3.1593,0,11,11,48,1,1,truck,basket,basket,truck,,,,,,,,,,,,,,,,
086,001,2023-09-19_11h05.55.100,exp_g1,2022.2.5,MacIntel,60.0024001,,,,,,,,138,l1,t,es,f0u,audio/138.wav,,l1_t_es_f0u_138,,,,,,,image/pants.png,image/shirt.png,shirt,rshift,rshift,1,2.3275,0,12,12,52,1,1,shirt,pants,pants,shirt,,,,,,,,,,,,,,,,
086,001,2023-09-19_11h05.55.100,exp_g1,2022.2.5,MacIntel,60.0024001,,,,,,,,076,l1,f,se,na,audio/076.wav,,l1_f_se_na_076,,,,,,,image/hotdog.png,image/burger.png,hotdog,lshift,lshift,1,2.0078,0,13,13,15,1,1,hotdog,burger,hotdog,burger,,,,,,,,,,,,,,,,
086,001,2023-09-19_11h05.55.100,exp_g1,2022.2.5,MacIntel,60.0024001,,,,,,,,074,l1,f,en,na,audio/074.wav,,l1_f_en_na_074,,,,,,,image/boy.png,image/woman.png,boy,lshift,lshift,1,1.752,0,14,14,13,1,1,boy,woman,boy,woman,,,,,,,,,,,,,,,,
086,001,2023-09-19_11h05.55.100,exp_g1,2022.2.5,MacIntel,60.0024001,,,,,,,,139,l1,t,es,f0u,audio/139.wav,,l1_t_es_f0u_139,,,,,,,image/restaurant.png,image/hotel.png,restaurant,lshift,lshift,1,2.8033,0,15,15,53,1,1,restaurant,hotel,restaurant,hotel,,,,,,,,,,,,,,,,
086,001,2023-09-19_11h05.55.100,exp_g1,2022.2.5,MacIntel,60.0024001,,,,,,,,075,l1,f,en,na,audio/075.wav,,l1_f_en_na_075,,,,,,,image/dog.png,image/fish.png,fish,rshift,rshift,1,2.1912,0,16,16,14,1,1,fish,dog,dog,fish,,,,,,,,,,,,,,,,
086,001,2023-09-19_11h05.55.100,exp_g1,2022.2.5,MacIntel,60.0024001,,,,,,,,061,l1,f,en,na,audio/061.wav,,l1_f_en_na_061,,,,,,,image/cat.png,image/dog.png,dog,rshift,rshift,1,1.8362,0,17,17,0,1,1,dog,cat,cat,dog,image/,,,,,,,,,,,,,,,
086,001,2023-09-19_11h05.55.100,exp_g1,2022.2.5,MacIntel,60.0024001,,,,,,,,069,l1,f,en,na,audio/069.wav,,l1_f_en_na_069,,,,,,,image/bag.png,image/shirt.png,shirt,rshift,rshift,1,2.2192,0,18,18,8,1,1,shirt,bag,bag,shirt,,,,,,,,,,,,,,,,
086,001,2023-09-19_11h05.55.100,exp_g1,2022.2.5,MacIntel,60.0024001,,,,,,,,085,l1,f,se,na,audio/085.wav,,l1_f_se_na_085,,,,,,,image/loafers.png,image/sneakers.png,sneakers,rshift,rshift,1,3.03,0,19,19,24,1,1,sneakers,loafers,loafers,sneakers,,,,,,,,,,,,,,,,
086,001,2023-09-19_11h05.55.100,exp_g1,2022.2.5,MacIntel,60.0024001,,,,,,,,091,l1,f,sp,na,audio/091.wav,,l1_f_sp_na_091,,,,,,,image/backpack.png,image/bracelet.png,bracelet,rshift,lshift,0,2.3963,0,20,20,30,1,1,bracelet,backpack,backpack,bracelet,,,,,,,,,,,,,,,,
086,001,2023-09-19_11h05.55.100,exp_g1,2022.2.5,MacIntel,60.0024001,,,,,,,,068,l1,f,en,na,audio/068.wav,,l1_f_en_na_068,,,,,,,image/socks.png,image/book.png,socks,lshift,lshift,1,2.9253,0,21,21,7,1,1,socks,book,socks,book,,,,,,,,,,,,,,,,
086,001,2023-09-19_11h05.55.100,exp_g1,2022.2.5,MacIntel,60.0024001,,,,,,,,084,l1,f,se,na,audio/084.wav,,l1_f_se_na_084,,,,,,,image/penthouse.png,image/rocket.png,penthouse,lshift,lshift,1,2.56,0,22,22,23,1,1,penthouse,rocket,penthouse,rocket,,,,,,,,,,,,,,,,
086,001,2023-09-19_11h05.55.100,exp_g1,2022.2.5,MacIntel,60.0024001,,,,,,,,079,l1,f,se,na,audio/079.wav,,l1_f_se_na_079,,,,,,,image/sweatpants.png,image/jeans.png,jeans,rshift,rshift,1,2.3037,0,23,23,18,1,1,jeans,sweatpants,sweatpants,jeans,,,,,,,,,,,,,,,,
086,001,2023-09-19_11h05.55.100,exp_g1,2022.2.5,MacIntel,60.0024001,,,,,,,,092,l1,f,sp,na,audio/092.wav,,l1_f_sp_na_092,,,,,,,image/armchair.png,image/dog.png,armchair,lshift,rshift,0,3.2126,0,24,24,31,1,1,armchair,dog,armchair,dog,,,,,,,,,,,,,,,,
086,001,2023-09-19_11h05.55.100,exp_g1,2022.2.5,MacIntel,60.0024001,,,,,,,,016,l1,t,es,na,audio/016.wav,,l1_t_es_na_016,,,,,,,image/flipflops.png,image/bag.png,bag,rshift,rshift,1,3.1275,0,25,25,40,1,1,bag,flipflops,flipflops,bag,,,,,,,,,,,,,,,,
086,001,2023-09-19_11h05.55.100,exp_g1,2022.2.5,MacIntel,60.0024001,,,,,,,,136,l1,t,es,f0u,audio/136.wav,,l1_t_es_f0u_136,,,,,,,image/city.png,image/village.png,village,rshift,rshift,1,2.8425,0,26,26,50,1,1,village,city,city,village,,,,,,,,,,,,,,,,
086,001,2023-09-19_11h05.55.100,exp_g1,2022.2.5,MacIntel,60.0024001,,,,,,,,083,l1,f,se,na,audio/083.wav,,l1_f_se_na_083,,,,,,,image/donut.png,image/burger.png,burger,rshift,rshift,1,2.0976,0,27,27,22,1,1,burger,donut,donut,burger,,,,,,,,,,,,,,,,
086,001,2023-09-19_11h05.55.100,exp_g1,2022.2.5,MacIntel,60.0024001,,,,,,,,062,l1,f,en,na,audio/062.wav,,l1_f_en_na_062,,,,,,,image/shoe.png,image/ring.png,shoe,lshift,lshift,1,1.8577,0,28,28,1,1,1,shoe,ring,shoe,ring,,,,,,,,,,,,,,,,
086,001,2023-09-19_11h05.55.100,exp_g1,2022.2.5,MacIntel,60.0024001,,,,,,,,066,l1,f,en,na,audio/066.wav,,l1_f_en_na_066,,,,,,,image/bag.png,image/scarf.png,bag,lshift,lshift,1,2.1798,0,29,29,5,1,1,bag,scarf,bag,scarf,,,,,,,,,,,,,,,,
086,001,2023-09-19_11h05.55.100,exp_g1,2022.2.5,MacIntel,60.0024001,,,,,,,,095,l1,f,sp,na,audio/095.wav,,l1_f_sp_na_095,,,,,,,image/socks.png,image/key.png,key,rshift,rshift,1,2.3343,0,30,30,34,1,1,key,socks,socks,key,,,,,,,,,,,,,,,,
086,001,2023-09-19_11h05.55.100,exp_g1,2022.2.5,MacIntel,60.0024001,,,,,,,,014,l1,t,es,na,audio/014.wav,,l1_t_es_na_014,,,,,,,image/book.png,image/key.png,key,rshift,rshift,1,2.1162,0,31,31,38,1,1,key,book,book,key,,,,,,,,,,,,,,,,
086,001,2023-09-19_11h05.55.100,exp_g1,2022.2.5,MacIntel,60.0024001,,,,,,,,093,l1,f,sp,na,audio/093.wav,,l1_f_sp_na_093,,,,,,,image/boy.png,image/book.png,book,rshift,rshift,1,1.7328,0,32,32,32,1,1,book,boy,boy,book,,,,,,,,,,,,,,,,
086,001,2023-09-19_11h05.55.100,exp_g1,2022.2.5,MacIntel,60.0024001,,,,,,,,078,l1,f,se,na,audio/078.wav,,l1_f_se_na_078,,,,,,,image/airpods.png,image/joycons.png,airpods,lshift,lshift,1,1.8414,0,33,33,17,1,1,airpods,joycons,airpods,joycons,,,,,,,,,,,,,,,,
086,001,2023-09-19_11h05.55.100,exp_g1,2022.2.5,MacIntel,60.0024001,,,,,,,,080,l1,f,se,na,audio/080.wav,,l1_f_se_na_080,,,,,,,image/mouse.png,image/rat.png,mouse,lshift,lshift,1,2.1715,0,34,34,19,1,1,mouse,rat,mouse,rat,,,,,,,,,,,,,,,,
086,001,2023-09-19_11h05.55.100,exp_g1,2022.2.5,MacIntel,60.0024001,,,,,,,,087,l1,f,sp,na,audio/087.wav,,l1_f_sp_na_087,,,,,,,image/desk.png,image/bed.png,bed,rshift,rshift,1,2.7781,0,35,35,26,1,1,bed,desk,desk,bed,,,,,,,,,,,,,,,,
086,001,2023-09-19_11h05.55.100,exp_g1,2022.2.5,MacIntel,60.0024001,,,,,,,,020,l1,t,es,na,audio/020.wav,,l1_t_es_na_020,,,,,,,image/cellphone.png,image/backpack.png,backpack,rshift,rshift,1,2.7426,0,36,36,44,1,1,backpack,cellphone,cellphone,backpack,,,,,,,,,,,,,,,,
086,001,2023-09-19_11h05.55.100,exp_g1,2022.2.5,MacIntel,60.0024001,,,,,,,,072,l1,f,en,na,audio/072.wav,,l1_f_en_na_072,,,,,,,image/dog.png,image/fish.png,dog,lshift,lshift,1,1.9953,0,37,37,11,1,1,dog,fish,dog,fish,,,,,,,,,,,,,,,,
086,001,2023-09-19_11h05.55.100,exp_g1,2022.2.5,MacIntel,60.0024001,,,,,,,,081,l1,f,se,na,audio/081.wav,,l1_f_se_na_081,,,,,,,image/boxers.png,image/sweatpants.png,sweatpants,rshift,rshift,1,2.3951,0,38,38,20,1,1,sweatpants,boxers,boxers,sweatpants,,,,,,,,,,,,,,,,
086,001,2023-09-19_11h05.55.100,exp_g1,2022.2.5,MacIntel,60.0024001,,,,,,,,015,l1,t,es,na,audio/015.wav,,l1_t_es_na_015,,,,,,,image/glasses.png,image/jacket.png,glasses,lshift,lshift,1,3.7102,0,39,39,39,1,1,glasses,jacket,glasses,jacket,,,,,,,,,,,,,,,,
086,001,2023-09-19_11h05.55.100,exp_g1,2022.2.5,MacIntel,60.0024001,,,,,,,,065,l1,f,en,na,audio/065.wav,,l1_f_en_na_065,,,,,,,image/computer.png,image/book.png,book,rshift,rshift,1,1.8906,0,40,40,4,1,1,book,computer,computer,book,,,,,,,,,,,,,,,,
086,001,2023-09-19_11h05.55.100,exp_g1,2022.2.5,MacIntel,60.0024001,,,,,,,,012,l1,t,es,na,audio/012.wav,,l1_t_es_na_012,,,,,,,image/newspaper.png,image/book.png,book,rshift,rshift,1,2.155,0,41,41,36,1,1,book,newspaper,newspaper,book,,,,,,,,,,,,,,,,
086,001,2023-09-19_11h05.55.100,exp_g1,2022.2.5,MacIntel,60.0024001,,,,,,,,135,l1,t,es,f0u,audio/135.wav,,l1_t_es_f0u_135,,,,,,,image/flipflops.png,image/flower.png,flipflops,lshift,lshift,1,2.236,0,42,42,49,1,1,flipflops,flower,flipflops,flower,,,,,,,,,,,,,,,,
086,001,2023-09-19_11h05.55.100,exp_g1,2022.2.5,MacIntel,60.0024001,,,,,,,,073,l1,f,en,na,audio/073.wav,,l1_f_en_na_073,,,,,,,image/socks.png,image/tshirt.png,tshirt,rshift,rshift,1,2.1087,0,43,43,12,1,1,tshirt,socks,socks,tshirt,,,,,,,,,,,,,,,,
086,001,2023-09-19_11h05.55.100,exp_g1,2022.2.5,MacIntel,60.0024001,,,,,,,,133,l1,t,es,f0u,audio/133.wav,,l1_t_es_f0u_133,,,,,,,image/cellphone.png,image/book.png,cellphone,lshift,lshift,1,2.4687,0,44,44,47,1,1,cellphone,book,cellphone,book,,,,,,,,,,,,,,,,
086,001,2023-09-19_11h05.55.100,exp_g1,2022.2.5,MacIntel,60.0024001,,,,,,,,071,l1,f,en,na,audio/071.wav,,l1_f_en_na_071,,,,,,,image/wallet.png,image/plane.png,plane,rshift,rshift,1,2.5574,0,45,45,10,1,1,plane,wallet,wallet,plane,,,,,,,,,,,,,,,,
086,001,2023-09-19_11h05.55.100,exp_g1,2022.2.5,MacIntel,60.0024001,,,,,,,,018,l1,t,es,na,audio/018.wav,,l1_t_es_na_018,,,,,,,image/cups.png,image/napkins.png,napkins,rshift,rshift,1,2.7175,0,46,46,42,1,1,napkins,cups,cups,napkins,,,,,,,,,,,,,,,,
086,001,2023-09-19_11h05.55.100,exp_g1,2022.2.5,MacIntel,60.0024001,,,,,,,,086,l1,f,sp,na,audio/086.wav,,l1_f_sp_na_086,,,,,,,image/plates.png,image/glasses.png,plates,lshift,lshift,1,2.0101,0,47,47,25,1,1,plates,glasses,plates,glasses,,,,,,,,,,,,,,,,
086,001,2023-09-19_11h05.55.100,exp_g1,2022.2.5,MacIntel,60.0024001,,,,,,,,077,l1,f,se,na,audio/077.wav,,l1_f_se_na_077,,,,,,,image/mashedpotatoes.png,image/donut.png,donut,rshift,rshift,1,2.0645,0,48,48,16,1,1,donut,mashedpotatoes,mashedpotatoes,donut,,,,,,,,,,,,,,,,
086,001,2023-09-19_11h05.55.100,exp_g1,2022.2.5,MacIntel,60.0024001,,,,,,,,137,l1,t,es,f0u,audio/137.wav,,l1_t_es_f0u_137,,,,,,,image/jacket.png,image/shirt.png,jacket,lshift,lshift,1,2.1904,0,49,49,51,1,1,jacket,shirt,jacket,shirt,,,,,,,,,,,,,,,,
086,001,2023-09-19_11h05.55.100,exp_g1,2022.2.5,MacIntel,60.0024001,,,,,,,,132,l1,t,es,f0u,audio/132.wav,,l1_t_es_f0u_132,,,,,,,image/car.png,image/grandma.png,grandma,rshift,rshift,1,2.2591,0,50,50,46,1,1,grandma,car,car,grandma,,,,,,,,,,,,,,,,
086,001,2023-09-19_11h05.55.100,exp_g1,2022.2.5,MacIntel,60.0024001,,,,,,,,140,l1,t,es,f0u,audio/140.wav,,l1_t_es_f0u_140,,,,,,,image/ring.png,image/bracelet.png,bracelet,rshift,rshift,1,3.2168,0,51,51,54,1,1,bracelet,ring,ring,bracelet,,,,,,,,,,,,,,,,
086,001,2023-09-19_11h05.55.100,exp_g1,2022.2.5,MacIntel,60.0024001,,,,,,,,063,l1,f,en,na,audio/063.wav,,l1_f_en_na_063,,,,,,,image/woman.png,image/man.png,man,rshift,rshift,1,1.7452,0,52,52,2,1,1,man,woman,woman,man,,,,,,,,,,,,,,,,
086,001,2023-09-19_11h05.55.100,exp_g1,2022.2.5,MacIntel,60.0024001,,,,,,,,088,l1,f,sp,na,audio/088.wav,,l1_f_sp_na_088,,,,,,,image/book.png,image/cellphone.png,book,lshift,lshift,1,2.0004,0,53,53,27,1,1,book,cellphone,book,cellphone,,,,,,,,,,,,,,,,
086,001,2023-09-19_11h05.55.100,exp_g1,2022.2.5,MacIntel,60.0024001,,,,,,,,131,l1,t,es,f0u,audio/131.wav,,l1_t_es_f0u_131,,,,,,,image/cat.png,image/flower.png,cat,lshift,lshift,1,2.0444,0,54,54,45,1,1,cat,flower,cat,flower,,,,,,,,,,,,,,,,
086,001,2023-09-19_11h05.55.100,exp_g1,2022.2.5,MacIntel,60.0024001,,,,,,,,,,,,,,,,,,,,,,,,,,,,,,,,,,,,,,,,,,,,,,,,,,,,,,
086,001,2023-09-19_11h05.55.100,exp_g1,2022.2.5,MacIntel,60.0024001,,,,,,,,,,,,,,,,,,,,,,,,,,,,,,,,,,,,,,,,"[""lshift"",""rshift""]","[1.5057999999523304,1.9375]",0,0,0,0,1,,,,,,,,
086,001,2023-09-19_11h05.55.100,exp_g1,2022.2.5,MacIntel,60.0024001,,,,,,,,,,,,,,,,,,,,,,,,,,,,,,,,,,,,,,,,"[""lshift"",""rshift""]","[1.1007000000477092,1.8501000001430725]",1,0,1,0,1,,,,,,,,
086,001,2023-09-19_11h05.55.100,exp_g1,2022.2.5,MacIntel,60.0024001,,,,,,,,,,,,,,,,,,,,,,,,,,,,,,,,,,,,,,,,,,,,,,,,,,,,,,
086,001,2023-09-19_11h05.55.100,exp_g1,2022.2.5,MacIntel,60.0024001,,,,,,,,124,l2,f,sp,na,audio/124.wav,,l2_f_sp_na_124,,,,,,,image/america.png,image/spain.png,,,,,,,,,,,2,america,spain,,,,,,,,,,,"[""rshift""]",[1.3230999999046276],0,0,0,28,1,
086,001,2023-09-19_11h05.55.100,exp_g1,2022.2.5,MacIntel,60.0024001,,,,,,,,028,l2,t,es,na,audio/028.wav,,l2_t_es_na_028,,,,,,,image/america.png,image/spain.png,,,,,,,,,,,2,america,spain,,,,,,,,,,,"[""lshift"",""rshift""]","[1.7249000000953743,2.285299999952315]",0,1,1,42,1,1
086,001,2023-09-19_11h05.55.100,exp_g1,2022.2.5,MacIntel,60.0024001,,,,,,,,099,l2,f,en,na,audio/099.wav,,l2_f_en_na_099,,,,,,,image/america.png,image/spain.png,,,,,,,,,,,2,america,spain,,,,,,,,,,,"[""lshift""]",[1.100499999999954],0,2,2,3,1,
086,001,2023-09-19_11h05.55.100,exp_g1,2022.2.5,MacIntel,60.0024001,,,,,,,,026,l2,t,es,na,audio/026.wav,,l2_t_es_na_026,,,,,,,image/america.png,image/spain.png,,,,,,,,,,,2,america,spain,,,,,,,,,,,"[""lshift"",""rshift""]","[1.0685000000000286,2.0506000001430493]",0,3,3,40,1,1
086,001,2023-09-19_11h05.55.100,exp_g1,2022.2.5,MacIntel,60.0024001,,,,,,,,107,l2,f,en,na,audio/107.wav,,l2_f_en_na_107,,,,,,,image/america.png,image/spain.png,,,,,,,,,,,2,america,spain,,,,,,,,,,,"[""lshift""]",[1.1512999999523004],0,4,4,11,1,
086,001,2023-09-19_11h05.55.100,exp_g1,2022.2.5,MacIntel,60.0024001,,,,,,,,130,l2,f,sp,na,audio/130.wav,,l2_f_sp_na_130,,,,,,,image/america.png,image/spain.png,,,,,,,,,,,2,america,spain,,,,,,,,,,,"[""rshift""]",[1.400900000095362],0,5,5,34,1,
086,001,2023-09-19_11h05.55.100,exp_g1,2022.2.5,MacIntel,60.0024001,,,,,,,,117,l2,f,se,na,audio/117.wav,,l2_f_se_na_117,,,,,,,image/america.png,image/spain.png,,,,,,,,,,,2,america,spain,,,,,,,,,,,"[""rshift""]",[1.6314000000953683],0,6,6,21,1,1
086,001,2023-09-19_11h05.55.100,exp_g1,2022.2.5,MacIntel,60.0024001,,,,,,,,170,l2,t,es,f0c,audio/170.wav,,l2_t_es_f0c_170,,,,,,,image/america.png,image/spain.png,,,,,,,,,,,2,america,spain,,,,,,,,,,,"[""rshift"",""lshift""]","[1.849099999904638,2.3845999999045944]",0,7,7,54,1,1
086,001,2023-09-19_11h05.55.100,exp_g1,2022.2.5,MacIntel,60.0024001,,,,,,,,098,l2,f,en,na,audio/098.wav,,l2_f_en_na_098,,,,,,,image/america.png,image/spain.png,,,,,,,,,,,2,america,spain,,,,,,,,,,,"[""lshift""]",[1.5436000001431012],0,8,8,2,1,
086,001,2023-09-19_11h05.55.100,exp_g1,2022.2.5,MacIntel,60.0024001,,,,,,,,110,l2,f,en,na,audio/110.wav,,l2_f_en_na_110,,,,,,,image/america.png,image/spain.png,,,,,,,,,,,2,america,spain,,,,,,,,,,,"[""lshift""]",[1.1829000000953442],0,9,9,14,1,
086,001,2023-09-19_11h05.55.100,exp_g1,2022.2.5,MacIntel,60.0024001,,,,,,,,168,l2,t,es,f0c,audio/168.wav,,l2_t_es_f0c_168,,,,,,,image/america.png,image/spain.png,,,,,,,,,,,2,america,spain,,,,,,,,,,,"[""lshift"",""rshift""]","[1.3155999999046344,1.8607999999523486]",0,10,10,52,1,1
086,001,2023-09-19_11h05.55.100,exp_g1,2022.2.5,MacIntel,60.0024001,,,,,,,,126,l2,f,sp,na,audio/126.wav,,l2_f_sp_na_126,,,,,,,image/america.png,image/spain.png,,,,,,,,,,,2,america,spain,,,,,,,,,,,"[""rshift""]",[1.5863999998569511],0,11,11,30,1,
086,001,2023-09-19_11h05.55.100,exp_g1,2022.2.5,MacIntel,60.0024001,,,,,,,,101,l2,f,en,na,audio/101.wav,,l2_f_en_na_101,,,,,,,image/america.png,image/spain.png,,,,,,,,,,,2,america,spain,,,,,,,,,,,"[""lshift""]",[1.501599999904613],0,12,12,5,1,
086,001,2023-09-19_11h05.55.100,exp_g1,2022.2.5,MacIntel,60.0024001,,,,,,,,030,l2,t,es,na,audio/030.wav,,l2_t_es_na_030,,,,,,,image/america.png,image/spain.png,,,,,,,,,,,2,america,spain,,,,,,,,,,,"[""lshift"",""rshift""]","[1.3519999999999754,2.3653999998569475]",0,13,13,44,1,1
086,001,2023-09-19_11h05.55.100,exp_g1,2022.2.5,MacIntel,60.0024001,,,,,,,,120,l2,f,se,na,audio/120.wav,,l2_f_se_na_120,,,,,,,image/america.png,image/spain.png,,,,,,,,,,,2,america,spain,,,,,,,,,,,"[""lshift"",""rshift"",""lshift""]","[1.0345999999046285,1.5522000000476623,2.668099999904598]",0,14,14,24,1,1
086,001,2023-09-19_11h05.55.100,exp_g1,2022.2.5,MacIntel,60.0024001,,,,,,,,123,l2,f,sp,na,audio/123.wav,,l2_f_sp_na_123,,,,,,,image/america.png,image/spain.png,,,,,,,,,,,2,america,spain,,,,,,,,,,,"[""lshift"",""rshift"",""lshift""]","[1.218500000000006,1.416499999999985,2.453700000047661]",0,15,15,27,1,
086,001,2023-09-19_11h05.55.100,exp_g1,2022.2.5,MacIntel,60.0024001,,,,,,,,105,l2,f,en,na,audio/105.wav,,l2_f_en_na_105,,,,,,,image/america.png,image/spain.png,,,,,,,,,,,2,america,spain,,,,,,,,,,,"[""lshift""]",[1.2552999999523422],0,16,16,9,1,
086,001,2023-09-19_11h05.55.100,exp_g1,2022.2.5,MacIntel,60.0024001,,,,,,,,112,l2,f,se,na,audio/112.wav,,l2_f_se_na_112,,,,,,,image/america.png,image/spain.png,,,,,,,,,,,2,america,spain,,,,,,,,,,,"[""lshift""]",[1.3060999999046317],0,17,17,16,1,1
086,001,2023-09-19_11h05.55.100,exp_g1,2022.2.5,MacIntel,60.0024001,,,,,,,,166,l2,t,es,f0c,audio/166.wav,,l2_t_es_f0c_166,,,,,,,image/america.png,image/spain.png,,,,,,,,,,,2,america,spain,,,,,,,,,,,"[""lshift"",""rshift""]","[1.3474000000953765,2.75]",0,18,18,50,1,1
086,001,2023-09-19_11h05.55.100,exp_g1,2022.2.5,MacIntel,60.0024001,,,,,,,,119,l2,f,se,na,audio/119.wav,,l2_f_se_na_119,,,,,,,image/america.png,image/spain.png,,,,,,,,,,,2,america,spain,,,,,,,,,,,"[""rshift"",""lshift""]","[1.422200000047667,2.405700000047659]",0,19,19,23,1,1
086,001,2023-09-19_11h05.55.100,exp_g1,2022.2.5,MacIntel,60.0024001,,,,,,,,116,l2,f,se,na,audio/116.wav,,l2_f_se_na_116,,,,,,,image/america.png,image/spain.png,,,,,,,,,,,2,america,spain,,,,,,,,,,,"[""rshift""]",[1.383400000095321],0,20,20,20,1,1
086,001,2023-09-19_11h05.55.100,exp_g1,2022.2.5,MacIntel,60.0024001,,,,,,,,109,l2,f,en,na,audio/109.wav,,l2_f_en_na_109,,,,,,,image/america.png,image/spain.png,,,,,,,,,,,2,america,spain,,,,,,,,,,,"[""lshift""]",[1.8273000001907462],0,21,21,13,1,
086,001,2023-09-19_11h05.55.100,exp_g1,2022.2.5,MacIntel,60.0024001,,,,,,,,161,l2,t,es,f0c,audio/161.wav,,l2_t_es_f0c_161,,,,,,,image/america.png,image/spain.png,,,,,,,,,,,2,america,spain,,,,,,,,,,,"[""lshift"",""rshift""]","[1.484599999904674,2.032799999952317]",0,22,22,45,1,1
086,001,2023-09-19_11h05.55.100,exp_g1,2022.2.5,MacIntel,60.0024001,,,,,,,,027,l2,t,es,na,audio/027.wav,,l2_t_es_na_027,,,,,,,image/america.png,image/spain.png,,,,,,,,,,,2,america,spain,,,,,,,,,,,"[""lshift"",""rshift""]","[1.282600000143077,1.837500000000034]",0,23,23,41,1,1
086,001,2023-09-19_11h05.55.100,exp_g1,2022.2.5,MacIntel,60.0024001,,,,,,,,127,l2,f,sp,na,audio/127.wav,,l2_f_sp_na_127,,,,,,,image/america.png,image/spain.png,,,,,,,,,,,2,america,spain,,,,,,,,,,,"[""rshift""]",[1.3014000000953274],0,24,24,31,1,
086,001,2023-09-19_11h05.55.100,exp_g1,2022.2.5,MacIntel,60.0024001,,,,,,,,111,l2,f,se,na,audio/111.wav,,l2_f_se_na_111,,,,,,,image/america.png,image/spain.png,,,,,,,,,,,2,america,spain,,,,,,,,,,,"[""rshift"",""lshift""]","[1.6017999999523909,2.251500000000078]",0,25,25,15,1,1
086,001,2023-09-19_11h05.55.100,exp_g1,2022.2.5,MacIntel,60.0024001,,,,,,,,108,l2,f,en,na,audio/108.wav,,l2_f_en_na_108,,,,,,,image/america.png,image/spain.png,,,,,,,,,,,2,america,spain,,,,,,,,,,,"[""lshift""]",[1.4825999999046644],0,26,26,12,1,
086,001,2023-09-19_11h05.55.100,exp_g1,2022.2.5,MacIntel,60.0024001,,,,,,,,024,l2,t,es,na,audio/024.wav,,l2_t_es_na_024,,,,,,,image/america.png,image/spain.png,,,,,,,,,,,2,america,spain,,,,,,,,,,,"[""lshift"",""rshift""]","[2.867800000190755,2.951800000190701]",0,27,27,38,1,1
086,001,2023-09-19_11h05.55.100,exp_g1,2022.2.5,MacIntel,60.0024001,,,,,,,,162,l2,t,es,f0c,audio/162.wav,,l2_t_es_f0c_162,,,,,,,image/america.png,image/spain.png,,,,,,,,,,,2,america,spain,,,,,,,,,,,"[""lshift"",""rshift""]","[1.5711000001430193,1.9832000000476455]",0,28,28,46,1,1
086,001,2023-09-19_11h05.55.100,exp_g1,2022.2.5,MacIntel,60.0024001,,,,,,,,122,l2,f,sp,na,audio/122.wav,,l2_f_sp_na_122,,,,,,,image/america.png,image/spain.png,,,,,,,,,,,2,america,spain,,,,,,,,,,,"[""rshift""]",[1.4629000000953738],0,29,29,26,1,
086,001,2023-09-19_11h05.55.100,exp_g1,2022.2.5,MacIntel,60.0024001,,,,,,,,025,l2,t,es,na,audio/025.wav,,l2_t_es_na_025,,,,,,,image/america.png,image/spain.png,,,,,,,,,,,2,america,spain,,,,,,,,,,,"[""lshift"",""rshift""]","[1.6004000000953056,2.016499999999951]",0,30,30,39,1,1
086,001,2023-09-19_11h05.55.100,exp_g1,2022.2.5,MacIntel,60.0024001,,,,,,,,169,l2,t,es,f0c,audio/169.wav,,l2_t_es_f0c_169,,,,,,,image/america.png,image/spain.png,,,,,,,,,,,2,america,spain,,,,,,,,,,,"[""lshift"",""rshift""]","[1.4370000000000118,2.078200000047673]",0,31,31,53,1,1
086,001,2023-09-19_11h05.55.100,exp_g1,2022.2.5,MacIntel,60.0024001,,,,,,,,164,l2,t,es,f0c,audio/164.wav,,l2_t_es_f0c_164,,,,,,,image/america.png,image/spain.png,,,,,,,,,,,2,america,spain,,,,,,,,,,,"[""lshift"",""rshift""]","[1.4207000000476455,1.8818999998569552]",0,32,32,48,1,1
086,001,2023-09-19_11h05.55.100,exp_g1,2022.2.5,MacIntel,60.0024001,,,,,,,,022,l2,t,es,na,audio/022.wav,,l2_t_es_na_022,,,,,,,image/america.png,image/spain.png,,,,,,,,,,,2,america,spain,,,,,,,,,,,"[""lshift"",""rshift""]","[1.253200000047741,2.0563999998570353]",0,33,33,36,1,1
086,001,2023-09-19_11h05.55.100,exp_g1,2022.2.5,MacIntel,60.0024001,,,,,,,,023,l2,t,es,na,audio/023.wav,,l2_t_es_na_023,,,,,,,image/america.png,image/spain.png,,,,,,,,,,,2,america,spain,,,,,,,,,,,"[""lshift"",""rshift""]","[1.2577000000477483,2.2176000001430793]",0,34,34,37,1,1
086,001,2023-09-19_11h05.55.100,exp_g1,2022.2.5,MacIntel,60.0024001,,,,,,,,121,l2,f,sp,na,audio/121.wav,,l2_f_sp_na_121,,,,,,,image/america.png,image/spain.png,,,,,,,,,,,2,america,spain,,,,,,,,,,,"[""lshift"",""rshift""]","[1.083799999952248,1.4359999999999218]",0,35,35,25,1,
086,001,2023-09-19_11h05.55.100,exp_g1,2022.2.5,MacIntel,60.0024001,,,,,,,,163,l2,t,es,f0c,audio/163.wav,,l2_t_es_f0c_163,,,,,,,image/america.png,image/spain.png,,,,,,,,,,,2,america,spain,,,,,,,,,,,"[""lshift"",""rshift""]","[1.6870000000000118,2.934299999952259]",0,36,36,47,1,1
086,001,2023-09-19_11h05.55.100,exp_g1,2022.2.5,MacIntel,60.0024001,,,,,,,,029,l2,t,es,na,audio/029.wav,,l2_t_es_na_029,,,,,,,image/america.png,image/spain.png,,,,,,,,,,,2,america,spain,,,,,,,,,,,"[""lshift"",""rshift""]","[1.4350999999046508,2.5512999999523345]",0,37,37,43,1,1
086,001,2023-09-19_11h05.55.100,exp_g1,2022.2.5,MacIntel,60.0024001,,,,,,,,114,l2,f,se,na,audio/114.wav,,l2_f_se_na_114,,,,,,,image/america.png,image/spain.png,,,,,,,,,,,2,america,spain,,,,,,,,,,,"[""rshift"",""lshift""]","[1.2373000001906576,2.069499999999948]",0,38,38,18,1,1
086,001,2023-09-19_11h05.55.100,exp_g1,2022.2.5,MacIntel,60.0024001,,,,,,,,129,l2,f,sp,na,audio/129.wav,,l2_f_sp_na_129,,,,,,,image/america.png,image/spain.png,,,,,,,,,,,2,america,spain,,,,,,,,,,,"[""rshift""]",[1.6349000000952856],0,39,39,33,1,
086,001,2023-09-19_11h05.55.100,exp_g1,2022.2.5,MacIntel,60.0024001,,,,,,,,102,l2,f,en,na,audio/102.wav,,l2_f_en_na_102,,,,,,,image/america.png,image/spain.png,,,,,,,,,,,2,america,spain,,,,,,,,,,,"[""lshift""]",[1.4913999998569807],0,40,40,6,1,
086,001,2023-09-19_11h05.55.100,exp_g1,2022.2.5,MacIntel,60.0024001,,,,,,,,097,l2,f,en,na,audio/097.wav,,l2_f_en_na_097,,,,,,,image/america.png,image/spain.png,,,,,,,,,,,2,america,spain,,,,,,,,,,,"[""lshift""]",[1.438400000095271],0,41,41,1,1,
086,001,2023-09-19_11h05.55.100,exp_g1,2022.2.5,MacIntel,60.0024001,,,,,,,,165,l2,t,es,f0c,audio/165.wav,,l2_t_es_f0c_165,,,,,,,image/america.png,image/spain.png,,,,,,,,,,,2,america,spain,,,,,,,,,,,"[""lshift"",""rshift""]","[1.4860000000001037,1.8854000000953874]",0,42,42,49,1,1
086,001,2023-09-19_11h05.55.100,exp_g1,2022.2.5,MacIntel,60.0024001,,,,,,,,128,l2,f,sp,na,audio/128.wav,,l2_f_sp_na_128,,,,,,,image/america.png,image/spain.png,,,,,,,,,,,2,america,spain,,,,,,,,,,,"[""rshift""]",[1.4520999999047035],0,43,43,32,1,
086,001,2023-09-19_11h05.55.100,exp_g1,2022.2.5,MacIntel,60.0024001,,,,,,,,096,l2,f,en,na,audio/096.wav,,l2_f_en_na_096,,,,,,,image/america.png,image/spain.png,,,,,,,,,,,2,america,spain,,,,,,,,,,,"[""lshift""]",[1.4691000001430439],0,44,44,0,1,
086,001,2023-09-19_11h05.55.100,exp_g1,2022.2.5,MacIntel,60.0024001,,,,,,,,125,l2,f,sp,na,audio/125.wav,,l2_f_sp_na_125,,,,,,,image/america.png,image/spain.png,,,,,,,,,,,2,america,spain,,,,,,,,,,,"[""rshift""]",[1.5685000000000855],0,45,45,29,1,
086,001,2023-09-19_11h05.55.100,exp_g1,2022.2.5,MacIntel,60.0024001,,,,,,,,167,l2,t,es,f0c,audio/167.wav,,l2_t_es_f0c_167,,,,,,,image/america.png,image/spain.png,,,,,,,,,,,2,america,spain,,,,,,,,,,,"[""lshift"",""rshift""]","[2.536599999904638,2.7061999998093142]",0,46,46,51,1,1
086,001,2023-09-19_11h05.55.100,exp_g1,2022.2.5,MacIntel,60.0024001,,,,,,,,113,l2,f,se,na,audio/113.wav,,l2_f_se_na_113,,,,,,,image/america.png,image/spain.png,,,,,,,,,,,2,america,spain,,,,,,,,,,,"[""rshift"",""lshift""]","[1.603400000095462,1.9830999999046526]",0,47,47,17,1,1
086,001,2023-09-19_11h05.55.100,exp_g1,2022.2.5,MacIntel,60.0024001,,,,,,,,103,l2,f,en,na,audio/103.wav,,l2_f_en_na_103,,,,,,,image/america.png,image/spain.png,,,,,,,,,,,2,america,spain,,,,,,,,,,,"[""lshift""]",[1.3582000000476455],0,48,48,7,1,
086,001,2023-09-19_11h05.55.100,exp_g1,2022.2.5,MacIntel,60.0024001,,,,,,,,118,l2,f,se,na,audio/118.wav,,l2_f_se_na_118,,,,,,,image/america.png,image/spain.png,,,,,,,,,,,2,america,spain,,,,,,,,,,,"[""rshift""]",[1.461500000000001],0,49,49,22,1,1
086,001,2023-09-19_11h05.55.100,exp_g1,2022.2.5,MacIntel,60.0024001,,,,,,,,100,l2,f,en,na,audio/100.wav,,l2_f_en_na_100,,,,,,,image/america.png,image/spain.png,,,,,,,,,,,2,america,spain,,,,,,,,,,,"[""rshift"",""lshift""]","[1.488200000047641,2.12210000014295]",0,50,50,4,1,
086,001,2023-09-19_11h05.55.100,exp_g1,2022.2.5,MacIntel,60.0024001,,,,,,,,115,l2,f,se,na,audio/115.wav,,l2_f_se_na_115,,,,,,,image/america.png,image/spain.png,,,,,,,,,,,2,america,spain,,,,,,,,,,,"[""rshift"",""lshift""]","[1.9849999999999,2.26920000004759]",0,51,51,19,1,1
086,001,2023-09-19_11h05.55.100,exp_g1,2022.2.5,MacIntel,60.0024001,,,,,,,,106,l2,f,en,na,audio/106.wav,,l2_f_en_na_106,,,,,,,image/america.png,image/spain.png,,,,,,,,,,,2,america,spain,,,,,,,,,,,"[""lshift"",""rshift""]","[1.1535000000000082,2.386600000143062]",0,52,52,10,1,
086,001,2023-09-19_11h05.55.100,exp_g1,2022.2.5,MacIntel,60.0024001,,,,,,,,021,l2,t,es,na,audio/021.wav,,l2_t_es_na_021,,,,,,,image/america.png,image/spain.png,,,,,,,,,,,2,america,spain,,,,,,,,,,,"[""lshift"",""rshift""]","[1.5897999999522199,2.141600000142944]",0,53,53,35,1,1
086,001,2023-09-19_11h05.55.100,exp_g1,2022.2.5,MacIntel,60.0024001,,,,,,,,104,l2,f,en,na,audio/104.wav,,l2_f_en_na_104,,,,,,,image/america.png,image/spain.png,,,,,,,,,,,2,america,spain,,,,,,,,,,,"[""lshift""]",[1.4499999999999318],0,54,54,8,1,
086,001,2023-09-19_11h05.55.100,exp_g1,2022.2.5,MacIntel,60.0024001,,,,,,,,,,,,,,,,,,,,,,,,,,,,,,,,,,,,,,,,,,,,,,,,,,,,,,
