num,list,cond,lang,type,sound_dir,phr,sent_code,mat,mat_num,emb_num,emb,cut,mat_f0_c,left,right,correct_img,correct_key,exp_num,image,image_alt,left_img,right_img,image_dir,cs,exp1_retrial.thisRepN,exp1_retrial.thisTrialN,exp1_retrial.thisN,exp1_retrial.thisIndex,exp1_trial_loop.thisRepN,exp1_trial_loop.thisTrialN,exp1_trial_loop.thisN,exp1_trial_loop.thisIndex,exp1_loop.thisRepN,exp1_loop.thisTrialN,exp1_loop.thisN,exp1_loop.thisIndex,exp2_retrial.thisRepN,exp2_retrial.thisTrialN,exp2_retrial.thisN,exp2_retrial.thisIndex,exp2_trial_loop.thisRepN,exp2_trial_loop.thisTrialN,exp2_trial_loop.thisN,exp2_trial_loop.thisIndex,exp2_loop.thisRepN,exp2_loop.thisTrialN,exp2_loop.thisN,exp2_loop.thisIndex,exp1_trial_key.started,exp1_trial_sound.started,exp1_trial_key.keys,exp1_trial_key.rt,exp1_key.started,exp1_key.keys,exp1_key.corr,exp1_key.rt,exp1_sound.started,exp2_trial_key.started,exp2_trial_sound.started,exp2_trial_key.keys,exp2_trial_key.rt,exp2_key.started,exp2_sound.started,exp2_key.keys,exp2_key.rt,participant,session,date,expName,psychopyVersion,frameRate,
tr1,lt,tr,en,na,../practice_trial/audio/tr1.wav,Where are your kids?,lt_tr_en_na_tr1,-,-,-,-,-,-,../image/kids.png,../image/plates.png,kids,lshift,,,,,,,,0,0,0,0,0,0,0,0,,,,,,,,,,,,,,,,,31.262892084021587,32.20579216664579,None,,,,,,,,,,,,,,,KF2,001,2023-04-24_12h55.48.207,exp_g1,2022.2.5,None,
tr2,lt,tr,en,na,../practice_trial/audio/tr2.wav,Who is buying my car?,lt_tr_en_na_tr2,-,-,-,-,-,-,../image/bag.png,../image/car.png,car,rshift,,,,,,,,0,0,0,0,0,1,1,1,,,,,,,,,,,,,,,,,36.24659408401931,37.205951791668,['rshift'],[2.486624417011626],,,,,,,,,,,,,,KF2,001,2023-04-24_12h55.48.207,exp_g1,2022.2.5,None,
tr3,lt,tr,sp,na,../practice_trial/audio/tr3.wav,¿Dónde está mi perro?,lt_tr_sp_na_tr3,-,-,-,-,-,-,../image/dog.png,../image/grandma.png,dog,lshift,,,,,,,,0,0,0,0,0,2,2,2,,,,,,,,,,,,,,,,,38.77668879198609,39.73927462567032,['lshift'],[2.4400138330529444],,,,,,,,,,,,,,KF2,001,2023-04-24_12h55.48.207,exp_g1,2022.2.5,None,
tr4,lt,tr,sp,na,../practice_trial/audio/tr4.wav,¿De quién es la bolsa?,lt_tr_sp_na_tr4,-,-,-,-,-,-,../image/shirt.png,../image/bag.png,bag,rshift,,,,,,,,0,0,0,0,0,3,3,3,,,,,,,,,,,,,,,,,41.259119166992605,42.22125908366094,['rshift'],[2.853335292020347],,,,,,,,,,,,,,KF2,001,2023-04-24_12h55.48.207,exp_g1,2022.2.5,None,
tr5,lt,tr,se,na,../practice_trial/audio/tr5.wav,¿Dónde encontraste sus donuts?,lt_tr_se_na_tr5,-,-,-,-,-,-,../image/donut.png,../image/cups.png,donut,lshift,,,,,,,,0,0,0,0,0,4,4,4,,,,,,,,,,,,,,,,,44.15910679200897,45.1225309166514,['lshift'],[3.4788872920325957],,,,,,,,,,,,,,KF2,001,2023-04-24_12h55.48.207,exp_g1,2022.2.5,None,
tr6,lt,tr,se,na,../practice_trial/audio/tr6.wav,¿Cuándo compraste tu sweater?,lt_tr_se_na_tr6,-,-,-,-,-,-,../image/chair.png,../image/sweater.png,sweater,rshift,,,,,,,,0,0,0,0,0,5,5,5,,,,,,,,,,,,,,,,,47.681111334008165,48.649632625634936,['rshift'],[3.3790799169801176],,,,,,,,,,,,,,KF2,001,2023-04-24_12h55.48.207,exp_g1,2022.2.5,None,
tr7,lt,tr,es,na,../practice_trial/audio/tr7.wav,Why do you have my camisa?,lt_tr_es_na_tr7,-,-,-,-,-,-,../image/shirt.png,../image/wallet.png,shirt,lshift,,,,,,,,0,0,0,0,0,6,6,6,,,,,,,,,,,,,,,,,51.11163512500934,52.07329566666546,['lshift'],[3.630828958004713],,,,,,,,,,,,,,KF2,001,2023-04-24_12h55.48.207,exp_g1,2022.2.5,None,
tr8,lt,tr,es,na,../practice_trial/audio/tr8.wav,Where did you find his chanclas?,lt_tr_es_na_tr8,-,-,-,-,-,-,../image/key.png,../image/flipflops.png,flipflops,rshift,,,,,,,,0,0,0,0,0,7,7,7,,,,,,,,,,,,,,,,,54.79550933401333,55.75594016665515,['rshift'],[3.358276042039506],,,,,,,,,,,,,,KF2,001,2023-04-24_12h55.48.207,exp_g1,2022.2.5,None,
,,,,,,,,,,,,,,,,,,,,,,,,,0,0,0,0,,,,,,,,,,,,,,,,,,,,,,,,,,,,,,,,,,,,,,KF2,001,2023-04-24_12h55.48.207,exp_g1,2022.2.5,None,
tr1,lt,tr,en,na,../practice_trial/audio/tr1.wav,Where are your kids?,lt_tr_en_na_tr1,-,-,-,-,-,-,../image/kids.png,../image/plates.png,kids,lshift,,,,,,,,1,0,1,0,0,0,0,0,,,,,,,,,,,,,,,,,66.5746410000138,67.51601333363602,['lshift'],[3.7635232920292765],,,,,,,,,,,,,,KF2,001,2023-04-24_12h55.48.207,exp_g1,2022.2.5,None,
tr2,lt,tr,en,na,../practice_trial/audio/tr2.wav,Who is buying my car?,lt_tr_en_na_tr2,-,-,-,-,-,-,../image/bag.png,../image/car.png,car,rshift,,,,,,,,1,0,1,0,0,1,1,1,,,,,,,,,,,,,,,,,70.37775066698669,71.34943320864501,['rshift'],[2.4500742920208722],,,,,,,,,,,,,,KF2,001,2023-04-24_12h55.48.207,exp_g1,2022.2.5,None,
tr3,lt,tr,sp,na,../practice_trial/audio/tr3.wav,¿Dónde está mi perro?,lt_tr_sp_na_tr3,-,-,-,-,-,-,../image/dog.png,../image/grandma.png,dog,lshift,,,,,,,,1,0,1,0,0,2,2,2,,,,,,,,,,,,,,,,,72.88034912501462,73.83877300064002,['lshift'],[2.3525365000241436],,,,,,,,,,,,,,KF2,001,2023-04-24_12h55.48.207,exp_g1,2022.2.5,None,
tr4,lt,tr,sp,na,../practice_trial/audio/tr4.wav,¿De quién es la bolsa?,lt_tr_sp_na_tr4,-,-,-,-,-,-,../image/shirt.png,../image/bag.png,bag,rshift,,,,,,,,1,0,1,0,0,3,3,3,,,,,,,,,,,,,,,,,75.27581466699485,76.23929729167527,['rshift'],[2.8246194579987787],,,,,,,,,,,,,,KF2,001,2023-04-24_12h55.48.207,exp_g1,2022.2.5,None,
tr5,lt,tr,se,na,../practice_trial/audio/tr5.wav,¿Dónde encontraste sus donuts?,lt_tr_se_na_tr5,-,-,-,-,-,-,../image/donut.png,../image/cups.png,donut,lshift,,,,,,,,1,0,1,0,0,4,4,4,,,,,,,,,,,,,,,,,78.15620841697091,79.11593404168185,['lshift'],[3.0513054580660537],,,,,,,,,,,,,,KF2,001,2023-04-24_12h55.48.207,exp_g1,2022.2.5,None,
tr6,lt,tr,se,na,../practice_trial/audio/tr6.wav,¿Cuándo compraste tu sweater?,lt_tr_se_na_tr6,-,-,-,-,-,-,../image/chair.png,../image/sweater.png,sweater,rshift,,,,,,,,1,0,1,0,0,5,5,5,,,,,,,,,,,,,,,,,81.26197237498127,82.21586387564118,['rshift'],[2.849867374985479],,,,,,,,,,,,,,KF2,001,2023-04-24_12h55.48.207,exp_g1,2022.2.5,None,
tr7,lt,tr,es,na,../practice_trial/audio/tr7.wav,Why do you have my camisa?,lt_tr_es_na_tr7,-,-,-,-,-,-,../image/shirt.png,../image/wallet.png,shirt,lshift,,,,,,,,1,0,1,0,0,6,6,6,,,,,,,,,,,,,,,,,84.16257983399555,85.12166820868539,['lshift'],[2.7833239580504596],,,,,,,,,,,,,,KF2,001,2023-04-24_12h55.48.207,exp_g1,2022.2.5,None,
tr8,lt,tr,es,na,../practice_trial/audio/tr8.wav,Where did you find his chanclas?,lt_tr_es_na_tr8,-,-,-,-,-,-,../image/key.png,../image/flipflops.png,flipflops,rshift,,,,,,,,1,0,1,0,0,7,7,7,,,,,,,,,,,,,,,,,86.99286395899253,87.94929495867497,['rshift'],[2.3967292080051266],,,,,,,,,,,,,,KF2,001,2023-04-24_12h55.48.207,exp_g1,2022.2.5,None,
,,,,,,,,,,,,,,,,,,,,,,,,,1,0,1,0,,,,,,,,,,,,,,,,,,,,,,,,,,,,,,,,,,,,,,KF2,001,2023-04-24_12h55.48.207,exp_g1,2022.2.5,None,
13.0,l1,t,es,na,../audio/013.wav,,l1_t_es_na_013,,,,,,,../image/beer.png,../image/wine.png,beer,lshift,1,beer,wine,beer,wine,None,,,,,,,,,,0,0,0,37,,,,,,,,,,,,,,,,,98.44411783397663,lshift,1,-0.39521370793227106,,,,,,,,,,KF2,001,2023-04-24_12h55.48.207,exp_g1,2022.2.5,None,
16.0,l1,t,es,na,../audio/016.wav,,l1_t_es_na_016,,,,,,,../image/flipflops.png,../image/bag.png,bag,rshift,1,bag,flipflops,flipflops,bag,None,,,,,,,,,,0,1,1,40,,,,,,,,,,,,,,,,,98.4690201249905,rshift,1,3.6504782080301084,99.44948308368136,,,,,,,,,KF2,001,2023-04-24_12h55.48.207,exp_g1,2022.2.5,None,
82.0,l1,f,se,na,../audio/082.wav,,l1_f_se_na_082,,,,,,,../image/mickeymouse.png,../image/spongebob.png,mickeymouse,lshift,1,mickeymouse,spongebob,mickeymouse,spongebob,None,,,,,,,,,,0,2,2,21,,,,,,,,,,,,,,,,,102.1626619999879,lshift,1,2.64468254102394,103.1230007506713,,,,,,,,,KF2,001,2023-04-24_12h55.48.207,exp_g1,2022.2.5,None,
83.0,l1,f,se,na,../audio/083.wav,,l1_f_se_na_083,,,,,,,../image/donut.png,../image/burger.png,burger,rshift,1,burger,donut,donut,burger,None,,,,,,,,,,0,3,3,22,,,,,,,,,,,,,,,,,104.86406941700261,rshift,1,3.045188375050202,105.82017287565783,,,,,,,,,KF2,001,2023-04-24_12h55.48.207,exp_g1,2022.2.5,None,
64.0,l1,f,en,na,../audio/064.wav,,l1_f_en_na_064,,,,,,,../image/wallet.png,../image/key.png,wallet,lshift,1,wallet,key,wallet,key,None,,,,,,,,,,0,4,4,3,,,,,,,,,,,,,,,,,107.96379020897439,lshift,1,2.3914594579837285,108.92154187563962,,,,,,,,,KF2,001,2023-04-24_12h55.48.207,exp_g1,2022.2.5,None,
11.0,l1,t,es,na,../audio/011.wav,,l1_t_es_na_011,,,,,,,../image/armchair.png,../image/bed.png,armchair,lshift,1,armchair,bed,armchair,bed,None,,,,,,,,,,0,5,5,35,,,,,,,,,,,,,,,,,110.40243524999823,None,0,,111.36575220869078,,,,,,,,,KF2,001,2023-04-24_12h55.48.207,exp_g1,2022.2.5,None,
70.0,l1,f,en,na,../audio/070.wav,,l1_f_en_na_070,,,,,,,../image/computer.png,../image/bed.png,computer,lshift,1,computer,bed,computer,bed,None,,,,,,,,,,0,6,6,9,,,,,,,,,,,,,,,,,115.41128654201748,lshift,1,3.160181624989491,116.36463104165547,,,,,,,,,KF2,001,2023-04-24_12h55.48.207,exp_g1,2022.2.5,None,
140.0,l1,t,es,f0u,../audio/140.wav,,l1_t_es_f0u_140,,,,,,,../image/ring.png,../image/bracelet.png,bracelet,rshift,1,bracelet,ring,ring,bracelet,None,,,,,,,,,,0,7,7,54,,,,,,,,,,,,,,,,,118.61781254201196,rshift,1,3.3216755840112455,119.5823602506464,,,,,,,,,KF2,001,2023-04-24_12h55.48.207,exp_g1,2022.2.5,None,
85.0,l1,f,se,na,../audio/085.wav,,l1_f_se_na_085,,,,,,,../image/loafers.png,../image/sneakers.png,sneakers,rshift,1,sneakers,loafers,loafers,sneakers,None,,,,,,,,,,0,8,8,24,,,,,,,,,,,,,,,,,121.98969474999467,rshift,1,3.1046725410269573,122.9490524586911,,,,,,,,,KF2,001,2023-04-24_12h55.48.207,exp_g1,2022.2.5,None,
134.0,l1,t,es,f0u,../audio/134.wav,,l1_t_es_f0u_134,,,,,,,../image/basket.png,../image/truck.png,truck,rshift,1,truck,basket,basket,truck,None,,,,,,,,,,0,9,9,48,,,,,,,,,,,,,,,,,125.15089425002225,rshift,1,2.951045375026297,126.10551258369038,,,,,,,,,KF2,001,2023-04-24_12h55.48.207,exp_g1,2022.2.5,None,
138.0,l1,t,es,f0u,../audio/138.wav,,l1_t_es_f0u_138,,,,,,,../image/pants.png,../image/shirt.png,shirt,rshift,1,shirt,pants,pants,shirt,None,,,,,,,,,,0,10,10,52,,,,,,,,,,,,,,,,,128.15324566699564,rshift,1,3.037374042032752,129.11519512563635,,,,,,,,,KF2,001,2023-04-24_12h55.48.207,exp_g1,2022.2.5,None,
87.0,l1,f,sp,na,../audio/087.wav,,l1_f_sp_na_087,,,,,,,../image/desk.png,../image/bed.png,bed,rshift,1,bed,desk,desk,bed,None,,,,,,,,,,0,11,11,26,,,,,,,,,,,,,,,,,131.2448847499909,rshift,1,2.7001672090264037,132.19897687563596,,,,,,,,,KF2,001,2023-04-24_12h55.48.207,exp_g1,2022.2.5,None,
61.0,l1,f,en,na,../audio/061.wav,,l1_f_en_na_061,,,,,,,../image/cat.png,../image/dog.png,dog,rshift,1,dog,cat,cat,dog,../image/,,,,,,,,,,0,12,12,0,,,,,,,,,,,,,,,,,133.9923160839826,rshift,1,2.7579464580048807,134.94919687568134,,,,,,,,,KF2,001,2023-04-24_12h55.48.207,exp_g1,2022.2.5,None,
73.0,l1,f,en,na,../audio/073.wav,,l1_f_en_na_073,,,,,,,../image/socks.png,../image/tshirt.png,tshirt,rshift,1,tshirt,socks,socks,tshirt,None,,,,,,,,,,0,13,13,12,,,,,,,,,,,,,,,,,136.80117145902477,rshift,1,2.6993902919930406,137.76561770867946,,,,,,,,,KF2,001,2023-04-24_12h55.48.207,exp_g1,2022.2.5,None,
86.0,l1,f,sp,na,../audio/086.wav,,l1_f_sp_na_086,,,,,,,../image/plates.png,../image/glasses.png,plates,lshift,1,plates,glasses,plates,glasses,None,,,,,,,,,,0,14,14,25,,,,,,,,,,,,,,,,,139.5464766669902,lshift,1,2.7028321250109,140.51566695864702,,,,,,,,,KF2,001,2023-04-24_12h55.48.207,exp_g1,2022.2.5,None,
66.0,l1,f,en,na,../audio/066.wav,,l1_f_en_na_066,,,,,,,../image/bag.png,../image/scarf.png,bag,lshift,1,bag,scarf,bag,scarf,None,,,,,,,,,,0,15,15,5,,,,,,,,,,,,,,,,,142.29495725000743,lshift,1,3.213824000034947,143.25556916668236,,,,,,,,,KF2,001,2023-04-24_12h55.48.207,exp_g1,2022.2.5,None,
67.0,l1,f,en,na,../audio/067.wav,,l1_f_en_na_067,,,,,,,../image/beer.png,../image/glasses.png,glasses,rshift,1,glasses,beer,beer,glasses,None,,,,,,,,,,0,16,16,6,,,,,,,,,,,,,,,,,145.55718733399408,rshift,1,2.8376377500244416,146.52184350067208,,,,,,,,,KF2,001,2023-04-24_12h55.48.207,exp_g1,2022.2.5,None,
12.0,l1,t,es,na,../audio/012.wav,,l1_t_es_na_012,,,,,,,../image/newspaper.png,../image/book.png,book,rshift,1,book,newspaper,newspaper,book,None,,,,,,,,,,0,17,17,36,,,,,,,,,,,,,,,,,148.44744029198773,rshift,1,3.2805059170350432,149.40593579167424,,,,,,,,,KF2,001,2023-04-24_12h55.48.207,exp_g1,2022.2.5,None,
88.0,l1,f,sp,na,../audio/088.wav,,l1_f_sp_na_088,,,,,,,../image/book.png,../image/cellphone.png,book,lshift,1,book,cellphone,book,cellphone,None,,,,,,,,,,0,18,18,27,,,,,,,,,,,,,,,,,151.76486616698094,lshift,1,2.313527874997817,152.73251633363932,,,,,,,,,KF2,001,2023-04-24_12h55.48.207,exp_g1,2022.2.5,None,
79.0,l1,f,se,na,../audio/079.wav,,l1_f_se_na_079,,,,,,,../image/sweatpants.png,../image/jeans.png,jeans,rshift,1,jeans,sweatpants,sweatpants,jeans,None,,,,,,,,,,0,19,19,18,,,,,,,,,,,,,,,,,154.124997292005,rshift,1,2.4862788340542465,155.08939837565802,,,,,,,,,KF2,001,2023-04-24_12h55.48.207,exp_g1,2022.2.5,None,
91.0,l1,f,sp,na,../audio/091.wav,,l1_f_sp_na_091,,,,,,,../image/backpack.png,../image/bracelet.png,bracelet,rshift,1,bracelet,backpack,backpack,bracelet,None,,,,,,,,,,0,20,20,30,,,,,,,,,,,,,,,,,156.65954933397006,rshift,1,2.282387542014476,157.61578341666998,,,,,,,,,KF2,001,2023-04-24_12h55.48.207,exp_g1,2022.2.5,None,
139.0,l1,t,es,f0u,../audio/139.wav,,l1_t_es_f0u_139,,,,,,,../image/restaurant.png,../image/hotel.png,restaurant,lshift,1,restaurant,hotel,restaurant,hotel,None,,,,,,,,,,0,21,21,53,,,,,,,,,,,,,,,,,158.99651566700777,lshift,1,3.3825583750149235,159.9529883756807,,,,,,,,,KF2,001,2023-04-24_12h55.48.207,exp_g1,2022.2.5,None,
89.0,l1,f,sp,na,../audio/089.wav,,l1_f_sp_na_089,,,,,,,../image/bed.png,../image/wallet.png,wallet,rshift,1,wallet,bed,bed,wallet,None,,,,,,,,,,0,22,22,28,,,,,,,,,,,,,,,,,162.43588316696696,rshift,1,3.0638935409951955,163.3875938336753,,,,,,,,,KF2,001,2023-04-24_12h55.48.207,exp_g1,2022.2.5,None,
19.0,l1,t,es,na,../audio/019.wav,,l1_t_es_na_019,,,,,,,../image/boy.png,../image/dog.png,boy,lshift,1,boy,dog,boy,dog,None,,,,,,,,,,0,23,23,43,,,,,,,,,,,,,,,,,165.5472597500193,lshift,1,3.690241333039012,166.51553091669146,,,,,,,,,KF2,001,2023-04-24_12h55.48.207,exp_g1,2022.2.5,None,
137.0,l1,t,es,f0u,../audio/137.wav,,l1_t_es_f0u_137,,,,,,,../image/jacket.png,../image/shirt.png,jacket,lshift,1,jacket,shirt,jacket,shirt,None,,,,,,,,,,0,24,24,51,,,,,,,,,,,,,,,,,169.28258624998853,lshift,1,3.634032334026415,170.24828987569006,,,,,,,,,KF2,001,2023-04-24_12h55.48.207,exp_g1,2022.2.5,None,
80.0,l1,f,se,na,../audio/080.wav,,l1_f_se_na_080,,,,,,,../image/mouse.png,../image/rat.png,mouse,lshift,1,mouse,rat,mouse,rat,None,,,,,,,,,,0,25,25,19,,,,,,,,,,,,,,,,,172.96900649997406,lshift,1,4.2061460830736905,173.93519850063993,,,,,,,,,KF2,001,2023-04-24_12h55.48.207,exp_g1,2022.2.5,None,
72.0,l1,f,en,na,../audio/072.wav,,l1_f_en_na_072,,,,,,,../image/dog.png,../image/fish.png,dog,lshift,1,dog,fish,dog,fish,None,,,,,,,,,,0,26,26,11,,,,,,,,,,,,,,,,,177.22434458398493,lshift,1,3.6360558749875054,178.18873387563897,,,,,,,,,KF2,001,2023-04-24_12h55.48.207,exp_g1,2022.2.5,None,
131.0,l1,t,es,f0u,../audio/131.wav,,l1_t_es_f0u_131,,,,,,,../image/cat.png,../image/flower.png,cat,lshift,1,cat,flower,cat,flower,None,,,,,,,,,,0,27,27,45,,,,,,,,,,,,,,,,,180.91063933400437,lshift,1,3.5818799580447376,181.87131529167917,,,,,,,,,KF2,001,2023-04-24_12h55.48.207,exp_g1,2022.2.5,None,
14.0,l1,t,es,na,../audio/014.wav,,l1_t_es_na_014,,,,,,,../image/book.png,../image/key.png,key,rshift,1,key,book,book,key,None,,,,,,,,,,0,28,28,38,,,,,,,,,,,,,,,,,184.5399113749736,rshift,1,2.8597395830438472,185.504307083673,,,,,,,,,KF2,001,2023-04-24_12h55.48.207,exp_g1,2022.2.5,None,
20.0,l1,t,es,na,../audio/020.wav,,l1_t_es_na_020,,,,,,,../image/cellphone.png,../image/backpack.png,backpack,rshift,1,backpack,cellphone,cellphone,backpack,None,,,,,,,,,,0,29,29,44,,,,,,,,,,,,,,,,,187.45343666698318,rshift,1,3.0188740420271643,188.4147413756621,,,,,,,,,KF2,001,2023-04-24_12h55.48.207,exp_g1,2022.2.5,None,
94.0,l1,f,sp,na,../audio/094.wav,,l1_f_sp_na_094,,,,,,,../image/beer.png,../image/horchata.png,beer,lshift,1,beer,horchata,beer,horchata,None,,,,,,,,,,0,30,30,33,,,,,,,,,,,,,,,,,190.52603016700596,lshift,1,3.456264334032312,191.4875459166399,,,,,,,,,KF2,001,2023-04-24_12h55.48.207,exp_g1,2022.2.5,None,
63.0,l1,f,en,na,../audio/063.wav,,l1_f_en_na_063,,,,,,,../image/woman.png,../image/man.png,man,rshift,1,man,woman,woman,man,None,,,,,,,,,,0,31,31,2,,,,,,,,,,,,,,,,,194.03423041698989,rshift,1,2.6211051660357043,194.9983829166779,,,,,,,,,KF2,001,2023-04-24_12h55.48.207,exp_g1,2022.2.5,None,
68.0,l1,f,en,na,../audio/068.wav,,l1_f_en_na_068,,,,,,,../image/socks.png,../image/book.png,socks,lshift,1,socks,book,socks,book,None,,,,,,,,,,0,32,32,7,,,,,,,,,,,,,,,,,196.69869024999207,lshift,1,3.533618333050981,197.66471195867442,,,,,,,,,KF2,001,2023-04-24_12h55.48.207,exp_g1,2022.2.5,None,
135.0,l1,t,es,f0u,../audio/135.wav,,l1_t_es_f0u_135,,,,,,,../image/flipflops.png,../image/flower.png,flipflops,lshift,1,flipflops,flower,flipflops,flower,None,,,,,,,,,,0,33,33,49,,,,,,,,,,,,,,,,,200.28406174998963,lshift,1,3.0094734160229564,201.24820891663356,,,,,,,,,KF2,001,2023-04-24_12h55.48.207,exp_g1,2022.2.5,None,
133.0,l1,t,es,f0u,../audio/133.wav,,l1_t_es_f0u_133,,,,,,,../image/cellphone.png,../image/book.png,cellphone,lshift,1,cellphone,book,cellphone,book,None,,,,,,,,,,0,34,34,47,,,,,,,,,,,,,,,,,203.34175345901167,lshift,1,4.099327666044701,204.30477679166168,,,,,,,,,KF2,001,2023-04-24_12h55.48.207,exp_g1,2022.2.5,None,
81.0,l1,f,se,na,../audio/081.wav,,l1_f_se_na_081,,,,,,,../image/boxers.png,../image/sweatpants.png,sweatpants,rshift,1,sweatpants,boxers,boxers,sweatpants,None,,,,,,,,,,0,35,35,20,,,,,,,,,,,,,,,,,207.49132883397397,rshift,1,4.098142500035465,208.4547722506725,,,,,,,,,KF2,001,2023-04-24_12h55.48.207,exp_g1,2022.2.5,None,
65.0,l1,f,en,na,../audio/065.wav,,l1_f_en_na_065,,,,,,,../image/computer.png,../image/book.png,book,rshift,1,book,computer,computer,book,None,,,,,,,,,,0,36,36,4,,,,,,,,,,,,,,,,,211.63528758398024,rshift,1,2.2646070410264656,212.597776291663,,,,,,,,,KF2,001,2023-04-24_12h55.48.207,exp_g1,2022.2.5,None,
71.0,l1,f,en,na,../audio/071.wav,,l1_f_en_na_071,,,,,,,../image/wallet.png,../image/plane.png,plane,rshift,1,plane,wallet,wallet,plane,None,,,,,,,,,,0,37,37,10,,,,,,,,,,,,,,,,,213.9508642089786,rshift,1,3.2039792500436306,214.9145532506557,,,,,,,,,KF2,001,2023-04-24_12h55.48.207,exp_g1,2022.2.5,None,
77.0,l1,f,se,na,../audio/077.wav,,l1_f_se_na_077,,,,,,,../image/mashedpotatoes.png,../image/donut.png,donut,rshift,1,donut,mashedpotatoes,mashedpotatoes,donut,None,,,,,,,,,,0,38,38,16,,,,,,,,,,,,,,,,,217.2127099999925,rshift,1,2.546739500015974,218.17102225067018,,,,,,,,,KF2,001,2023-04-24_12h55.48.207,exp_g1,2022.2.5,None,
132.0,l1,t,es,f0u,../audio/132.wav,,l1_t_es_f0u_132,,,,,,,../image/car.png,../image/grandma.png,grandma,rshift,1,grandma,car,car,grandma,None,,,,,,,,,,0,39,39,46,,,,,,,,,,,,,,,,,219.79706574999727,rshift,1,2.8579746250179596,220.772393750671,,,,,,,,,KF2,001,2023-04-24_12h55.48.207,exp_g1,2022.2.5,None,
69.0,l1,f,en,na,../audio/069.wav,,l1_f_en_na_069,,,,,,,../image/bag.png,../image/shirt.png,shirt,rshift,1,shirt,bag,bag,shirt,None,,,,,,,,,,0,40,40,8,,,,,,,,,,,,,,,,,222.69343200000003,rshift,1,2.8561311660450883,223.66502120864268,,,,,,,,,KF2,001,2023-04-24_12h55.48.207,exp_g1,2022.2.5,None,
17.0,l1,t,es,na,../audio/017.wav,,l1_t_es_na_017,,,,,,,../image/jug.png,../image/cat.png,jug,lshift,1,jug,cat,jug,cat,None,,,,,,,,,,0,41,41,41,,,,,,,,,,,,,,,,,225.59724041697336,lshift,1,3.4185758330277167,226.56399687566253,,,,,,,,,KF2,001,2023-04-24_12h55.48.207,exp_g1,2022.2.5,None,
15.0,l1,t,es,na,../audio/015.wav,,l1_t_es_na_015,,,,,,,../image/glasses.png,../image/jacket.png,glasses,lshift,1,glasses,jacket,glasses,jacket,None,,,,,,,,,,0,42,42,39,,,,,,,,,,,,,,,,,229.06199779198505,lshift,1,3.0037273750058375,230.03183395864133,,,,,,,,,KF2,001,2023-04-24_12h55.48.207,exp_g1,2022.2.5,None,
62.0,l1,f,en,na,../audio/062.wav,,l1_f_en_na_062,,,,,,,../image/shoe.png,../image/ring.png,shoe,lshift,1,shoe,ring,shoe,ring,None,,,,,,,,,,0,43,43,1,,,,,,,,,,,,,,,,,232.1143929589889,lshift,1,3.0459486670442857,233.08176320867304,,,,,,,,,KF2,001,2023-04-24_12h55.48.207,exp_g1,2022.2.5,None,
95.0,l1,f,sp,na,../audio/095.wav,,l1_f_sp_na_095,,,,,,,../image/socks.png,../image/key.png,key,rshift,1,key,socks,socks,key,None,,,,,,,,,,0,44,44,34,,,,,,,,,,,,,,,,,235.20425479201367,rshift,1,3.027868584031239,236.16937333369086,,,,,,,,,KF2,001,2023-04-24_12h55.48.207,exp_g1,2022.2.5,None,
136.0,l1,t,es,f0u,../audio/136.wav,,l1_t_es_f0u_136,,,,,,,../image/city.png,../image/village.png,village,rshift,1,village,city,city,village,None,,,,,,,,,,0,45,45,50,,,,,,,,,,,,,,,,,238.2862708339817,rshift,1,4.1862074169912376,239.24834670866065,,,,,,,,,KF2,001,2023-04-24_12h55.48.207,exp_g1,2022.2.5,None,
18.0,l1,t,es,na,../audio/018.wav,,l1_t_es_na_018,,,,,,,../image/cups.png,../image/napkins.png,napkins,rshift,1,napkins,cups,cups,napkins,None,,,,,,,,,,0,46,46,42,,,,,,,,,,,,,,,,,242.5217596250004,rshift,1,2.9849260830669664,243.48120270867756,,,,,,,,,KF2,001,2023-04-24_12h55.48.207,exp_g1,2022.2.5,None,
84.0,l1,f,se,na,../audio/084.wav,,l1_f_se_na_084,,,,,,,../image/penthouse.png,../image/rocket.png,penthouse,lshift,1,penthouse,rocket,penthouse,rocket,None,,,,,,,,,,0,47,47,23,,,,,,,,,,,,,,,,,245.5647057919996,lshift,1,2.9803889580070972,246.52229475067386,,,,,,,,,KF2,001,2023-04-24_12h55.48.207,exp_g1,2022.2.5,None,
92.0,l1,f,sp,na,../audio/092.wav,,l1_f_sp_na_092,,,,,,,../image/armchair.png,../image/dog.png,armchair,lshift,1,armchair,dog,armchair,dog,None,,,,,,,,,,0,48,48,31,,,,,,,,,,,,,,,,,248.59947600000305,lshift,1,2.404362375033088,249.55444883363478,,,,,,,,,KF2,001,2023-04-24_12h55.48.207,exp_g1,2022.2.5,None,
75.0,l1,f,en,na,../audio/075.wav,,l1_f_en_na_075,,,,,,,../image/dog.png,../image/fish.png,fish,rshift,1,fish,dog,dog,fish,None,,,,,,,,,,0,49,49,14,,,,,,,,,,,,,,,,,251.04240483400645,rshift,1,3.3182680000318214,252.0149167086386,,,,,,,,,KF2,001,2023-04-24_12h55.48.207,exp_g1,2022.2.5,None,
90.0,l1,f,sp,na,../audio/090.wav,,l1_f_sp_na_090,,,,,,,../image/bag.png,../image/bottle.png,bag,lshift,1,bag,bottle,bag,bottle,None,,,,,,,,,,0,50,50,29,,,,,,,,,,,,,,,,,254.403133084008,lshift,1,3.317324208037462,255.37100933364516,,,,,,,,,KF2,001,2023-04-24_12h55.48.207,exp_g1,2022.2.5,None,
74.0,l1,f,en,na,../audio/074.wav,,l1_f_en_na_074,,,,,,,../image/boy.png,../image/woman.png,boy,lshift,1,boy,woman,boy,woman,None,,,,,,,,,,0,51,51,13,,,,,,,,,,,,,,,,,257.7664927499718,lshift,1,2.209720750048291,258.72688175068856,,,,,,,,,KF2,001,2023-04-24_12h55.48.207,exp_g1,2022.2.5,None,
78.0,l1,f,se,na,../audio/078.wav,,l1_f_se_na_078,,,,,,,../image/airpods.png,../image/joycons.png,airpods,lshift,1,airpods,joycons,airpods,joycons,None,,,,,,,,,,0,52,52,17,,,,,,,,,,,,,,,,,260.02442408399656,lshift,1,2.682843499991577,260.98646866664444,,,,,,,,,KF2,001,2023-04-24_12h55.48.207,exp_g1,2022.2.5,None,
76.0,l1,f,se,na,../audio/076.wav,,l1_f_se_na_076,,,,,,,../image/hotdog.png,../image/burger.png,hotdog,lshift,1,hotdog,burger,hotdog,burger,None,,,,,,,,,,0,53,53,15,,,,,,,,,,,,,,,,,262.7672523339861,lshift,1,3.0937317500356585,263.7209059166528,,,,,,,,,KF2,001,2023-04-24_12h55.48.207,exp_g1,2022.2.5,None,
93.0,l1,f,sp,na,../audio/093.wav,,l1_f_sp_na_093,,,,,,,../image/boy.png,../image/book.png,book,rshift,1,book,boy,boy,book,None,,,,,,,,,,0,54,54,32,,,,,,,,,,,,,,,,,265.90926975000184,rshift,1,2.9350988330552354,266.87002604164104,,,,,,,,,KF2,001,2023-04-24_12h55.48.207,exp_g1,2022.2.5,None,
tr1,lt,tr,en,na,../practice_trial/audio/tr1.wav,Where are your kids?,lt_tr_en_na_tr1,-,-,-,-,-,-,../image/america.png,../image/spain.png,,,,,,,,,,,,,,,,,,,,,,0,0,0,0,0,0,0,0,,,,,,,,,,,,,,295.105999041989,296.0540170416391,"['lshift', 'lshift']","[1.888311542046722, 4.1256379170226865]",,,,,KF2,001,2023-04-24_12h55.48.207,exp_g1,2022.2.5,None,
tr2,lt,tr,en,na,../practice_trial/audio/tr2.wav,Who is buying my car?,lt_tr_en_na_tr2,-,-,-,-,-,-,../image/america.png,../image/spain.png,,,,,,,,,,,,,,,,,,,,,,0,0,0,0,0,1,1,1,,,,,,,,,,,,,,300.0867214999744,301.0536044586372,"['lshift', 'lshift']","[2.4240415830281563, 3.952466375019867]",,,,,KF2,001,2023-04-24_12h55.48.207,exp_g1,2022.2.5,None,
tr3,lt,tr,sp,na,../practice_trial/audio/tr3.wav,¿Dónde está mi perro?,lt_tr_sp_na_tr3,-,-,-,-,-,-,../image/america.png,../image/spain.png,,,,,,,,,,,,,,,,,,,,,,0,0,0,0,0,2,2,2,,,,,,,,,,,,,,305.09579491696786,306.0548032086847,['rshift'],[2.9268347910256125],,,,,KF2,001,2023-04-24_12h55.48.207,exp_g1,2022.2.5,None,
tr4,lt,tr,sp,na,../practice_trial/audio/tr4.wav,¿De quién es la bolsa?,lt_tr_sp_na_tr4,-,-,-,-,-,-,../image/america.png,../image/spain.png,,,,,,,,,,,,,,,,,,,,,,0,0,0,0,0,3,3,3,,,,,,,,,,,,,,310.0869014589698,311.05359704164243,"['rshift', 'lshift', 'rshift']","[0.11375470901839435, 2.612266875046771, 3.0769768340396695]",,,,,KF2,001,2023-04-24_12h55.48.207,exp_g1,2022.2.5,None,
tr5,lt,tr,se,na,../practice_trial/audio/tr5.wav,¿Dónde encontraste sus donuts?,lt_tr_se_na_tr5,-,-,-,-,-,-,../image/america.png,../image/spain.png,,,,,,,,,,,,,,,,,,,,,,0,0,0,0,0,4,4,4,,,,,,,,,,,,,,315.0931209169794,316.0531533756914,None,,,,,,KF2,001,2023-04-24_12h55.48.207,exp_g1,2022.2.5,None,
tr6,lt,tr,se,na,../practice_trial/audio/tr6.wav,¿Cuándo compraste tu sweater?,lt_tr_se_na_tr6,-,-,-,-,-,-,../image/america.png,../image/spain.png,,,,,,,,,,,,,,,,,,,,,,0,0,0,0,0,5,5,5,,,,,,,,,,,,,,320.0912962919683,321.05430758366515,"['rshift', 'rshift']","[0.15085725003154948, 3.540478417009581]",,,,,KF2,001,2023-04-24_12h55.48.207,exp_g1,2022.2.5,None,
tr7,lt,tr,es,na,../practice_trial/audio/tr7.wav,Why do you have my camisa?,lt_tr_es_na_tr7,-,-,-,-,-,-,../image/america.png,../image/spain.png,,,,,,,,,,,,,,,,,,,,,,0,0,0,0,0,6,6,6,,,,,,,,,,,,,,325.0901285840082,326.05436516664145,['lshift'],[3.5096209589974023],,,,,KF2,001,2023-04-24_12h55.48.207,exp_g1,2022.2.5,None,
tr8,lt,tr,es,na,../practice_trial/audio/tr8.wav,Where did you find his chanclas?,lt_tr_es_na_tr8,-,-,-,-,-,-,../image/america.png,../image/spain.png,,,,,,,,,,,,,,,,,,,,,,0,0,0,0,0,7,7,7,,,,,,,,,,,,,,330.0904766669846,331.0541536256826,['lshift'],[3.2741791250300594],,,,,KF2,001,2023-04-24_12h55.48.207,exp_g1,2022.2.5,None,
,,,,,,,,,,,,,,,,,,,,,,,,,,,,,,,,,,,,,0,0,0,0,,,,,,,,,,,,,,,,,,,,,,,,,,KF2,001,2023-04-24_12h55.48.207,exp_g1,2022.2.5,None,
126.0,l2,f,sp,na,../audio/126.wav,,l2_f_sp_na_126,,,,,,,../image/america.png,../image/spain.png,,,2,america,spain,,,,None,,,,,,,,,,,,,,,,,,,,,0,0,0,30,,,,,,,,,,,,,,342.82306529197376,343.75339545868724,"['lshift', 'rshift']","[-0.4082716249395162, 2.154877250024583]",KF2,001,2023-04-24_12h55.48.207,exp_g1,2022.2.5,None,
25.0,l2,t,es,na,../audio/025.wav,,l2_t_es_na_025,,,,,,,../image/america.png,../image/spain.png,,,2,america,spain,,,,1,,,,,,,,,,,,,,,,,,,,,0,1,1,39,,,,,,,,,,,,,,347.8011952089728,348.7641847506786,['lshift'],[3.0798038750654086],KF2,001,2023-04-24_12h55.48.207,exp_g1,2022.2.5,None,
114.0,l2,f,se,na,../audio/114.wav,,l2_f_se_na_114,,,,,,,../image/america.png,../image/spain.png,,,2,america,spain,,,,1,,,,,,,,,,,,,,,,,,,,,0,2,2,18,,,,,,,,,,,,,,352.7972972089774,353.76290933369114,['rshift'],[2.052975583006628],KF2,001,2023-04-24_12h55.48.207,exp_g1,2022.2.5,None,
170.0,l2,t,es,f0c,../audio/170.wav,,l2_t_es_f0c_170,,,,,,,../image/america.png,../image/spain.png,,,2,america,spain,,,,1,,,,,,,,,,,,,,,,,,,,,0,3,3,54,,,,,,,,,,,,,,357.789374999993,358.7645823336827,['lshift'],[1.7932602080400102],KF2,001,2023-04-24_12h55.48.207,exp_g1,2022.2.5,None,
102.0,l2,f,en,na,../audio/102.wav,,l2_f_en_na_102,,,,,,,../image/america.png,../image/spain.png,,,2,america,spain,,,,None,,,,,,,,,,,,,,,,,,,,,0,4,4,6,,,,,,,,,,,,,,362.79758370900527,363.7544461256514,['rshift'],[1.6117758330656216],KF2,001,2023-04-24_12h55.48.207,exp_g1,2022.2.5,None,
29.0,l2,t,es,na,../audio/029.wav,,l2_t_es_na_029,,,,,,,../image/america.png,../image/spain.png,,,2,america,spain,,,,1,,,,,,,,,,,,,,,,,,,,,0,5,5,43,,,,,,,,,,,,,,367.8036314169876,368.75377379166116,['lshift'],[1.8006474160356447],KF2,001,2023-04-24_12h55.48.207,exp_g1,2022.2.5,None,
168.0,l2,t,es,f0c,../audio/168.wav,,l2_t_es_f0c_168,,,,,,,../image/america.png,../image/spain.png,,,2,america,spain,,,,1,,,,,,,,,,,,,,,,,,,,,0,6,6,52,,,,,,,,,,,,,,372.7972394169774,373.75410291663525,['rshift'],[2.3027173330192454],KF2,001,2023-04-24_12h55.48.207,exp_g1,2022.2.5,None,
123.0,l2,f,sp,na,../audio/123.wav,,l2_f_sp_na_123,,,,,,,../image/america.png,../image/spain.png,,,2,america,spain,,,,None,,,,,,,,,,,,,,,,,,,,,0,7,7,27,,,,,,,,,,,,,,377.801960458979,378.763781583639,['rshift'],[2.008216292015277],KF2,001,2023-04-24_12h55.48.207,exp_g1,2022.2.5,None,
124.0,l2,f,sp,na,../audio/124.wav,,l2_f_sp_na_124,,,,,,,../image/america.png,../image/spain.png,,,2,america,spain,,,,None,,,,,,,,,,,,,,,,,,,,,0,8,8,28,,,,,,,,,,,,,,382.8002735839691,383.7537665836901,['rshift'],[2.4908204580424353],KF2,001,2023-04-24_12h55.48.207,exp_g1,2022.2.5,None,
98.0,l2,f,en,na,../audio/098.wav,,l2_f_en_na_098,,,,,,,../image/america.png,../image/spain.png,,,2,america,spain,,,,None,,,,,,,,,,,,,,,,,,,,,0,9,9,2,,,,,,,,,,,,,,387.79874454200035,388.7540415836886,['lshift'],[1.9945425409823656],KF2,001,2023-04-24_12h55.48.207,exp_g1,2022.2.5,None,
120.0,l2,f,se,na,../audio/120.wav,,l2_f_se_na_120,,,,,,,../image/america.png,../image/spain.png,,,2,america,spain,,,,1,,,,,,,,,,,,,,,,,,,,,0,10,10,24,,,,,,,,,,,,,,392.7974853750202,393.7533382916629,['rshift'],[2.00002083304571],KF2,001,2023-04-24_12h55.48.207,exp_g1,2022.2.5,None,
27.0,l2,t,es,na,../audio/027.wav,,l2_t_es_na_027,,,,,,,../image/america.png,../image/spain.png,,,2,america,spain,,,,1,,,,,,,,,,,,,,,,,,,,,0,11,11,41,,,,,,,,,,,,,,397.7893908339902,398.75342245866,['lshift'],[2.138361417048145],KF2,001,2023-04-24_12h55.48.207,exp_g1,2022.2.5,None,
112.0,l2,f,se,na,../audio/112.wav,,l2_f_se_na_112,,,,,,,../image/america.png,../image/spain.png,,,2,america,spain,,,,1,,,,,,,,,,,,,,,,,,,,,0,12,12,16,,,,,,,,,,,,,,402.7998137919931,403.76378795865844,['rshift'],[2.986631208041217],KF2,001,2023-04-24_12h55.48.207,exp_g1,2022.2.5,None,
105.0,l2,f,en,na,../audio/105.wav,,l2_f_en_na_105,,,,,,,../image/america.png,../image/spain.png,,,2,america,spain,,,,None,,,,,,,,,,,,,,,,,,,,,0,13,13,9,,,,,,,,,,,,,,407.80042245896766,408.7638038336338,['lshift'],[2.164045125071425],KF2,001,2023-04-24_12h55.48.207,exp_g1,2022.2.5,None,
130.0,l2,f,sp,na,../audio/130.wav,,l2_f_sp_na_130,,,,,,,../image/america.png,../image/spain.png,,,2,america,spain,,,,None,,,,,,,,,,,,,,,,,,,,,0,14,14,34,,,,,,,,,,,,,,412.7999514170224,413.7637499586601,['rshift'],[2.036171166051645],KF2,001,2023-04-24_12h55.48.207,exp_g1,2022.2.5,None,
162.0,l2,t,es,f0c,../audio/162.wav,,l2_t_es_f0c_162,,,,,,,../image/america.png,../image/spain.png,,,2,america,spain,,,,1,,,,,,,,,,,,,,,,,,,,,0,15,15,46,,,,,,,,,,,,,,417.80054562498117,418.7536809586493,['lshift'],[2.1807895830716006],KF2,001,2023-04-24_12h55.48.207,exp_g1,2022.2.5,None,
96.0,l2,f,en,na,../audio/096.wav,,l2_f_en_na_096,,,,,,,../image/america.png,../image/spain.png,,,2,america,spain,,,,None,,,,,,,,,,,,,,,,,,,,,0,16,16,0,,,,,,,,,,,,,,422.79682816698914,423.7622004586776,['lshift'],[1.9609940420486964],KF2,001,2023-04-24_12h55.48.207,exp_g1,2022.2.5,None,
30.0,l2,t,es,na,../audio/030.wav,,l2_t_es_na_030,,,,,,,../image/america.png,../image/spain.png,,,2,america,spain,,,,1,,,,,,,,,,,,,,,,,,,,,0,17,17,44,,,,,,,,,,,,,,427.8005193750141,428.7636816256602,['lshift'],[2.196848417050205],KF2,001,2023-04-24_12h55.48.207,exp_g1,2022.2.5,None,
108.0,l2,f,en,na,../audio/108.wav,,l2_f_en_na_108,,,,,,,../image/america.png,../image/spain.png,,,2,america,spain,,,,None,,,,,,,,,,,,,,,,,,,,,0,18,18,12,,,,,,,,,,,,,,432.7986977499677,433.7636217916772,['lshift'],[1.7104595000273548],KF2,001,2023-04-24_12h55.48.207,exp_g1,2022.2.5,None,
127.0,l2,f,sp,na,../audio/127.wav,,l2_f_sp_na_127,,,,,,,../image/america.png,../image/spain.png,,,2,america,spain,,,,None,,,,,,,,,,,,,,,,,,,,,0,19,19,31,,,,,,,,,,,,,,437.79878204199485,438.763212541646,"['lshift', 'rshift']","[2.0663324170163833, 3.2063795840367675]",KF2,001,2023-04-24_12h55.48.207,exp_g1,2022.2.5,None,
99.0,l2,f,en,na,../audio/099.wav,,l2_f_en_na_099,,,,,,,../image/america.png,../image/spain.png,,,2,america,spain,,,,None,,,,,,,,,,,,,,,,,,,,,0,20,20,3,,,,,,,,,,,,,,442.7986689169775,443.76347816666043,['lshift'],[2.724078750004992],KF2,001,2023-04-24_12h55.48.207,exp_g1,2022.2.5,None,
119.0,l2,f,se,na,../audio/119.wav,,l2_f_se_na_119,,,,,,,../image/america.png,../image/spain.png,,,2,america,spain,,,,1,,,,,,,,,,,,,,,,,,,,,0,21,21,23,,,,,,,,,,,,,,447.79900387499947,448.76347679167907,['rshift'],[1.6819221670157276],KF2,001,2023-04-24_12h55.48.207,exp_g1,2022.2.5,None,
122.0,l2,f,sp,na,../audio/122.wav,,l2_f_sp_na_122,,,,,,,../image/america.png,../image/spain.png,,,2,america,spain,,,,None,,,,,,,,,,,,,,,,,,,,,0,22,22,26,,,,,,,,,,,,,,452.7988914590096,453.75345158367804,['rshift'],[2.598928084014915],KF2,001,2023-04-24_12h55.48.207,exp_g1,2022.2.5,None,
118.0,l2,f,se,na,../audio/118.wav,,l2_f_se_na_118,,,,,,,../image/america.png,../image/spain.png,,,2,america,spain,,,,1,,,,,,,,,,,,,,,,,,,,,0,23,23,22,,,,,,,,,,,,,,457.7995506669977,458.7533204166723,['rshift'],[2.2609773330623284],KF2,001,2023-04-24_12h55.48.207,exp_g1,2022.2.5,None,
129.0,l2,f,sp,na,../audio/129.wav,,l2_f_sp_na_129,,,,,,,../image/america.png,../image/spain.png,,,2,america,spain,,,,None,,,,,,,,,,,,,,,,,,,,,0,24,24,33,,,,,,,,,,,,,,462.79923620901536,463.76337354164957,['rshift'],[1.5984016670263372],KF2,001,2023-04-24_12h55.48.207,exp_g1,2022.2.5,None,
24.0,l2,t,es,na,../audio/024.wav,,l2_t_es_na_024,,,,,,,../image/america.png,../image/spain.png,,,2,america,spain,,,,1,,,,,,,,,,,,,,,,,,,,,0,25,25,38,,,,,,,,,,,,,,467.7984542499762,468.76341216668175,['lshift'],[1.5720828750054352],KF2,001,2023-04-24_12h55.48.207,exp_g1,2022.2.5,None,
115.0,l2,f,se,na,../audio/115.wav,,l2_f_se_na_115,,,,,,,../image/america.png,../image/spain.png,,,2,america,spain,,,,1,,,,,,,,,,,,,,,,,,,,,0,26,26,19,,,,,,,,,,,,,,472.7976669589989,473.76341362565677,['rshift'],[1.7492504580295645],KF2,001,2023-04-24_12h55.48.207,exp_g1,2022.2.5,None,
104.0,l2,f,en,na,../audio/104.wav,,l2_f_en_na_104,,,,,,,../image/america.png,../image/spain.png,,,2,america,spain,,,,None,,,,,,,,,,,,,,,,,,,,,0,27,27,8,,,,,,,,,,,,,,477.79837933398085,478.7629522506652,['lshift'],[1.6513904590392485],KF2,001,2023-04-24_12h55.48.207,exp_g1,2022.2.5,None,
125,l2,f,sp,na,../audio/125.wav,,l2_f_sp_na_125,,,,,,,../image/america.png,../image/spain.png,,,2,america,spain,,,,None,,,,,,,,,,,,,,,,,,,,,0,28,28,29,,,,,,,,,,,,,,482.7964348749956,483.7532916666862,['rshift'],[1.7692068750038743],KF2,001,2023-04-24_12h55.48.207,exp_g1,2022.2.5,None,
165.0,l2,t,es,f0c,../audio/165.wav,,l2_t_es_f0c_165,,,,,,,../image/america.png,../image/spain.png,,,2,america,spain,,,,1,,,,,,,,,,,,,,,,,,,,,0,29,29,49,,,,,,,,,,,,,,487.79739654198056,488.76270266663437,['lshift'],[1.8001012920285575],KF2,001,2023-04-24_12h55.48.207,exp_g1,2022.2.5,None,
121.0,l2,f,sp,na,../audio/121.wav,,l2_f_sp_na_121,,,,,,,../image/america.png,../image/spain.png,,,2,america,spain,,,,None,,,,,,,,,,,,,,,,,,,,,0,30,30,25,,,,,,,,,,,,,,492.7974750419962,493.76331683365083,['rshift'],[2.6999041660455987],KF2,001,2023-04-24_12h55.48.207,exp_g1,2022.2.5,None,
23.0,l2,t,es,na,../audio/023.wav,,l2_t_es_na_023,,,,,,,../image/america.png,../image/spain.png,,,2,america,spain,,,,1,,,,,,,,,,,,,,,,,,,,,0,31,31,37,,,,,,,,,,,,,,497.7974102090229,498.7629370836696,['rshift'],[3.072175541019533],KF2,001,2023-04-24_12h55.48.207,exp_g1,2022.2.5,None,
109.0,l2,f,en,na,../audio/109.wav,,l2_f_en_na_109,,,,,,,../image/america.png,../image/spain.png,,,2,america,spain,,,,None,,,,,,,,,,,,,,,,,,,,,0,32,32,13,,,,,,,,,,,,,,502.8002707089763,503.7620060416559,['lshift'],[2.1090614160057157],KF2,001,2023-04-24_12h55.48.207,exp_g1,2022.2.5,None,
161.0,l2,t,es,f0c,../audio/161.wav,,l2_t_es_f0c_161,,,,,,,../image/america.png,../image/spain.png,,,2,america,spain,,,,1,,,,,,,,,,,,,,,,,,,,,0,33,33,45,,,,,,,,,,,,,,507.79918249999173,508.76315550064123,['lshift'],[3.0047049170243554],KF2,001,2023-04-24_12h55.48.207,exp_g1,2022.2.5,None,
103.0,l2,f,en,na,../audio/103.wav,,l2_f_en_na_103,,,,,,,../image/america.png,../image/spain.png,,,2,america,spain,,,,None,,,,,,,,,,,,,,,,,,,,,0,34,34,7,,,,,,,,,,,,,,512.7962972089881,513.7629587086888,['lshift'],[2.7884989580488764],KF2,001,2023-04-24_12h55.48.207,exp_g1,2022.2.5,None,
101.0,l2,f,en,na,../audio/101.wav,,l2_f_en_na_101,,,,,,,../image/america.png,../image/spain.png,,,2,america,spain,,,,None,,,,,,,,,,,,,,,,,,,,,0,35,35,5,,,,,,,,,,,,,,517.7991792919929,518.7630862506378,['lshift'],[1.9901481249835342],KF2,001,2023-04-24_12h55.48.207,exp_g1,2022.2.5,None,
22.0,l2,t,es,na,../audio/022.wav,,l2_t_es_na_022,,,,,,,../image/america.png,../image/spain.png,,,2,america,spain,,,,1,,,,,,,,,,,,,,,,,,,,,0,36,36,36,,,,,,,,,,,,,,522.7976377499872,523.7616428336516,['lshift'],[1.9415030420059338],KF2,001,2023-04-24_12h55.48.207,exp_g1,2022.2.5,None,
28.0,l2,t,es,na,../audio/028.wav,,l2_t_es_na_028,,,,,,,../image/america.png,../image/spain.png,,,2,america,spain,,,,1,,,,,,,,,,,,,,,,,,,,,0,37,37,42,,,,,,,,,,,,,,527.7991297499975,528.7629077916538,['lshift'],[1.8897981250775047],KF2,001,2023-04-24_12h55.48.207,exp_g1,2022.2.5,None,
100.0,l2,f,en,na,../audio/100.wav,,l2_f_en_na_100,,,,,,,../image/america.png,../image/spain.png,,,2,america,spain,,,,None,,,,,,,,,,,,,,,,,,,,,0,38,38,4,,,,,,,,,,,,,,532.7990718749934,533.7624182506736,['lshift'],[1.7426998340524733],KF2,001,2023-04-24_12h55.48.207,exp_g1,2022.2.5,None,
169.0,l2,t,es,f0c,../audio/169.wav,,l2_t_es_f0c_169,,,,,,,../image/america.png,../image/spain.png,,,2,america,spain,,,,1,,,,,,,,,,,,,,,,,,,,,0,39,39,53,,,,,,,,,,,,,,537.7988818340236,538.7614414586608,['lshift'],[2.2349362920504063],KF2,001,2023-04-24_12h55.48.207,exp_g1,2022.2.5,None,
107.0,l2,f,en,na,../audio/107.wav,,l2_f_en_na_107,,,,,,,../image/america.png,../image/spain.png,,,2,america,spain,,,,None,,,,,,,,,,,,,,,,,,,,,0,40,40,11,,,,,,,,,,,,,,542.7973809589748,543.7626537916406,['lshift'],[1.8614943750435486],KF2,001,2023-04-24_12h55.48.207,exp_g1,2022.2.5,None,
21.0,l2,t,es,na,../audio/021.wav,,l2_t_es_na_021,,,,,,,../image/america.png,../image/spain.png,,,2,america,spain,,,,1,,,,,,,,,,,,,,,,,,,,,0,41,41,35,,,,,,,,,,,,,,547.7999648749828,548.7629296256384,['lshift'],[2.9216414170805365],KF2,001,2023-04-24_12h55.48.207,exp_g1,2022.2.5,None,
26.0,l2,t,es,na,../audio/026.wav,,l2_t_es_na_026,,,,,,,../image/america.png,../image/spain.png,,,2,america,spain,,,,1,,,,,,,,,,,,,,,,,,,,,0,42,42,40,,,,,,,,,,,,,,552.7888610839727,553.7628348756737,['lshift'],[1.5693284590379335],KF2,001,2023-04-24_12h55.48.207,exp_g1,2022.2.5,None,
110.0,l2,f,en,na,../audio/110.wav,,l2_f_en_na_110,,,,,,,../image/america.png,../image/spain.png,,,2,america,spain,,,,None,,,,,,,,,,,,,,,,,,,,,0,43,43,14,,,,,,,,,,,,,,557.8020383749972,558.7615142506586,['lshift'],[1.6826484170160256],KF2,001,2023-04-24_12h55.48.207,exp_g1,2022.2.5,None,
117.0,l2,f,se,na,../audio/117.wav,,l2_f_se_na_117,,,,,,,../image/america.png,../image/spain.png,,,2,america,spain,,,,1,,,,,,,,,,,,,,,,,,,,,0,44,44,21,,,,,,,,,,,,,,562.798054208979,563.762860708641,['rshift'],[1.835225332994014],KF2,001,2023-04-24_12h55.48.207,exp_g1,2022.2.5,None,
163.0,l2,t,es,f0c,../audio/163.wav,,l2_t_es_f0c_163,,,,,,,../image/america.png,../image/spain.png,,,2,america,spain,,,,1,,,,,,,,,,,,,,,,,,,,,0,45,45,47,,,,,,,,,,,,,,567.7967474170146,568.7628990836713,['lshift'],[2.437827625020873],KF2,001,2023-04-24_12h55.48.207,exp_g1,2022.2.5,None,
164.0,l2,t,es,f0c,../audio/164.wav,,l2_t_es_f0c_164,,,,,,,../image/america.png,../image/spain.png,,,2,america,spain,,,,1,,,,,,,,,,,,,,,,,,,,,0,46,46,48,,,,,,,,,,,,,,572.7960228750017,573.7624902506398,['lshift'],[2.7198429999989457],KF2,001,2023-04-24_12h55.48.207,exp_g1,2022.2.5,None,
116.0,l2,f,se,na,../audio/116.wav,,l2_f_se_na_116,,,,,,,../image/america.png,../image/spain.png,,,2,america,spain,,,,1,,,,,,,,,,,,,,,,,,,,,0,47,47,20,,,,,,,,,,,,,,577.7978648340213,578.762614166659,['rshift'],[1.7984084589988925],KF2,001,2023-04-24_12h55.48.207,exp_g1,2022.2.5,None,
97.0,l2,f,en,na,../audio/097.wav,,l2_f_en_na_097,,,,,,,../image/america.png,../image/spain.png,,,2,america,spain,,,,None,,,,,,,,,,,,,,,,,,,,,0,48,48,1,,,,,,,,,,,,,,582.7979252089863,583.76270312566,['lshift'],[1.7660005830111913],KF2,001,2023-04-24_12h55.48.207,exp_g1,2022.2.5,None,
166.0,l2,t,es,f0c,../audio/166.wav,,l2_t_es_f0c_166,,,,,,,../image/america.png,../image/spain.png,,,2,america,spain,,,,1,,,,,,,,,,,,,,,,,,,,,0,49,49,50,,,,,,,,,,,,,,587.8004719169694,588.762540625645,['lshift'],[3.0959525830112398],KF2,001,2023-04-24_12h55.48.207,exp_g1,2022.2.5,None,
106.0,l2,f,en,na,../audio/106.wav,,l2_f_en_na_106,,,,,,,../image/america.png,../image/spain.png,,,2,america,spain,,,,None,,,,,,,,,,,,,,,,,,,,,0,50,50,10,,,,,,,,,,,,,,592.7991704589804,593.7623869166748,['lshift'],[2.1364260830450803],KF2,001,2023-04-24_12h55.48.207,exp_g1,2022.2.5,None,
113.0,l2,f,se,na,../audio/113.wav,,l2_f_se_na_113,,,,,,,../image/america.png,../image/spain.png,,,2,america,spain,,,,1,,,,,,,,,,,,,,,,,,,,,0,51,51,17,,,,,,,,,,,,,,597.7970130839967,598.7620684166361,['rshift'],[2.099273500032723],KF2,001,2023-04-24_12h55.48.207,exp_g1,2022.2.5,None,
111.0,l2,f,se,na,../audio/111.wav,,l2_f_se_na_111,,,,,,,../image/america.png,../image/spain.png,,,2,america,spain,,,,1,,,,,,,,,,,,,,,,,,,,,0,52,52,15,,,,,,,,,,,,,,602.7977650840185,603.7620013756716,['lshift'],[2.682632709038444],KF2,001,2023-04-24_12h55.48.207,exp_g1,2022.2.5,None,
167.0,l2,t,es,f0c,../audio/167.wav,,l2_t_es_f0c_167,,,,,,,../image/america.png,../image/spain.png,,,2,america,spain,,,,1,,,,,,,,,,,,,,,,,,,,,0,53,53,51,,,,,,,,,,,,,,607.7994172920007,608.7619834166874,['lshift'],[3.320375708048232],KF2,001,2023-04-24_12h55.48.207,exp_g1,2022.2.5,None,
128.0,l2,f,sp,na,../audio/128.wav,,l2_f_sp_na_128,,,,,,,../image/america.png,../image/spain.png,,,2,america,spain,,,,None,,,,,,,,,,,,,,,,,,,,,0,54,54,32,,,,,,,,,,,,,,612.7970889590215,613.7618749586438,['rshift'],[3.1758593330159783],KF2,001,2023-04-24_12h55.48.207,exp_g1,2022.2.5,None,
