num,list,cond,lang,type,sound_dir,phr,sent_code,mat,mat_num,emb_num,emb,cut,mat_f0_c,left,right,correct_img,correct_key,exp_num,image,image_alt,left_img,right_img,image_dir,cs,exp1_retrial.thisRepN,exp1_retrial.thisTrialN,exp1_retrial.thisN,exp1_retrial.thisIndex,exp1_trial_loop.thisRepN,exp1_trial_loop.thisTrialN,exp1_trial_loop.thisN,exp1_trial_loop.thisIndex,exp1_loop.thisRepN,exp1_loop.thisTrialN,exp1_loop.thisN,exp1_loop.thisIndex,exp2_retrial.thisRepN,exp2_retrial.thisTrialN,exp2_retrial.thisN,exp2_retrial.thisIndex,exp2_trial_loop.thisRepN,exp2_trial_loop.thisTrialN,exp2_trial_loop.thisN,exp2_trial_loop.thisIndex,exp2_loop.thisRepN,exp2_loop.thisTrialN,exp2_loop.thisN,exp2_loop.thisIndex,exp1_trial_cross.started,exp1_trial_key.started,exp1_trial_cross.stopped,exp1_trial_sound.started,exp1_trial_key.keys,exp1_trial_key.rt,exp1_cross.started,exp1_key.started,exp1_key.keys,exp1_key.corr,exp1_key.rt,exp1_cross.stopped,exp1_sound.started,exp2_trial_cross.started,exp2_trial_key.started,exp2_trial_cross.stopped,exp2_trial_sound.started,exp2_trial_key.stopped,exp2_trial_key.keys,exp2_trial_key.rt,exp2_cross.started,exp2_key.started,exp2_cross.stopped,exp2_sound.started,exp2_key.stopped,exp2_key.keys,exp2_key.rt,participant,session,date,expName,psychopyVersion,frameRate,
tr1,lt,tr,en,na,../practice_trial/audio/tr1.wav,Where are your kids?,lt_tr_en_na_tr1,-,-,-,-,-,-,../image/kids.png,../image/plates.png,kids,lshift,,,,,,,,0,0,0,0,0,0,0,0,,,,,,,,,,,,,,,,,18.00428816594649,18.176016957964748,18.243145457934588,18.938578707693765,['lshift'],[1.764248292078264],,,,,,,,,,,,,,,,,,,,,,065,001,2023-04-26_16h26.14.078,exp_g1,2022.2.5,None,
tr2,lt,tr,en,na,../practice_trial/audio/tr2.wav,Who is buying my car?,lt_tr_en_na_tr2,-,-,-,-,-,-,../image/bag.png,../image/car.png,car,rshift,,,,,,,,0,0,0,0,0,1,1,1,,,,,,,,,,,,,,,,,19.97282612498384,20.188426750013605,20.22193129104562,20.955385791665563,['rshift'],[1.969576874980703],,,,,,,,,,,,,,,,,,,,,,065,001,2023-04-26_16h26.14.078,exp_g1,2022.2.5,None,
tr3,lt,tr,sp,na,../practice_trial/audio/tr3.wav,¿Dónde está mi perro?,lt_tr_sp_na_tr3,-,-,-,-,-,-,../image/dog.png,../image/grandma.png,dog,lshift,,,,,,,,0,0,0,0,0,2,2,2,,,,,,,,,,,,,,,,,22.19414858298842,22.41226504102815,22.438577458029613,23.17047862470305,['lshift'],[1.6328973750350997],,,,,,,,,,,,,,,,,,,,,,065,001,2023-04-26_16h26.14.078,exp_g1,2022.2.5,None,
tr4,lt,tr,sp,na,../practice_trial/audio/tr4.wav,¿De quién es la bolsa?,lt_tr_sp_na_tr4,-,-,-,-,-,-,../image/shirt.png,../image/bag.png,bag,rshift,,,,,,,,0,0,0,0,0,3,3,3,,,,,,,,,,,,,,,,,24.07806129101664,24.295039165997878,24.32820550003089,25.055233707713583,['rshift'],[2.235385583131574],,,,,,,,,,,,,,,,,,,,,,065,001,2023-04-26_16h26.14.078,exp_g1,2022.2.5,None,
tr5,lt,tr,se,na,../practice_trial/audio/tr5.wav,¿Dónde encontraste sus donuts?,lt_tr_se_na_tr5,-,-,-,-,-,-,../image/donut.png,../image/cups.png,donut,lshift,,,,,,,,0,0,0,0,0,4,4,4,,,,,,,,,,,,,,,,,26.572488875011913,26.78751433303114,26.821936541004106,27.544610541608805,['lshift'],[2.5745021250331774],,,,,,,,,,,,,,,,,,,,,,065,001,2023-04-26_16h26.14.078,exp_g1,2022.2.5,None,
tr6,lt,tr,se,na,../practice_trial/audio/tr6.wav,¿Cuándo compraste tu sweater?,lt_tr_se_na_tr6,-,-,-,-,-,-,../image/chair.png,../image/sweater.png,sweater,rshift,,,,,,,,0,0,0,0,0,5,5,5,,,,,,,,,,,,,,,,,29.397129041026346,29.612148332991637,29.64191029104404,30.371200374622518,['rshift'],[2.3140967501094565],,,,,,,,,,,,,,,,,,,,,,065,001,2023-04-26_16h26.14.078,exp_g1,2022.2.5,None,
tr7,lt,tr,es,na,../practice_trial/audio/tr7.wav,Why do you have my camisa?,lt_tr_es_na_tr7,-,-,-,-,-,-,../image/shirt.png,../image/wallet.png,shirt,lshift,,,,,,,,0,0,0,0,0,6,6,6,,,,,,,,,,,,,,,,,31.961644500028342,32.17764154099859,32.20504791603889,32.938512874712856,['lshift'],[2.115001792088151],,,,,,,,,,,,,,,,,,,,,,065,001,2023-04-26_16h26.14.078,exp_g1,2022.2.5,None,
tr8,lt,tr,es,na,../practice_trial/audio/tr8.wav,Where did you find his chanclas?,lt_tr_es_na_tr8,-,-,-,-,-,-,../image/key.png,../image/flipflops.png,flipflops,rshift,,,,,,,,0,0,0,0,0,7,7,7,,,,,,,,,,,,,,,,,34.322205708012916,34.54545874998439,34.57157216593623,35.30529204168512,['rshift'],[1.9378225000109524],,,,,,,,,,,,,,,,,,,,,,065,001,2023-04-26_16h26.14.078,exp_g1,2022.2.5,None,
,,,,,,,,,,,,,,,,,,,,,,,,,0,0,0,0,,,,,,,,,,,,,,,,,,,,,,,,,,,,,,,,,,,,,,,,,,,,,,,,065,001,2023-04-26_16h26.14.078,exp_g1,2022.2.5,None,
82.0,l1,f,se,na,../audio/082.wav,,l1_f_se_na_082,,,,,,,../image/mickeymouse.png,../image/spongebob.png,mickeymouse,lshift,1,mickeymouse,spongebob,mickeymouse,spongebob,None,,,,,,,,,,0,0,0,21,,,,,,,,,,,,,,,,,,,41.640530874952674,41.73716599994805,lshift,1,-0.4367942919488996,,,,,,,,,,,,,,,,,065,001,2023-04-26_16h26.14.078,exp_g1,2022.2.5,None,
140.0,l1,t,es,f0u,../audio/140.wav,,l1_t_es_f0u_140,,,,,,,../image/ring.png,../image/bracelet.png,bracelet,rshift,1,bracelet,ring,ring,bracelet,None,,,,,,,,,,0,1,1,54,,,,,,,,,,,,,,,,,,,41.76160391594749,41.974891416030005,rshift,1,2.992778499959968,42.01185841602273,42.738660457606116,,,,,,,,,,,,,,,065,001,2023-04-26_16h26.14.078,exp_g1,2022.2.5,None,
135.0,l1,t,es,f0u,../audio/135.wav,,l1_t_es_f0u_135,,,,,,,../image/flipflops.png,../image/flower.png,flipflops,lshift,1,flipflops,flower,flipflops,flower,None,,,,,,,,,,0,2,2,49,,,,,,,,,,,,,,,,,,,45.00308449997101,45.22165225003846,lshift,1,2.234045375022106,45.24290270800702,45.978926749612825,,,,,,,,,,,,,,,065,001,2023-04-26_16h26.14.078,exp_g1,2022.2.5,None,
69.0,l1,f,en,na,../audio/069.wav,,l1_f_en_na_069,,,,,,,../image/bag.png,../image/shirt.png,shirt,rshift,1,shirt,bag,bag,shirt,None,,,,,,,,,,0,3,3,8,,,,,,,,,,,,,,,,,,,47.493233041022904,47.71177037502639,rshift,1,1.685138790984638,47.73824637499638,48.47167904168988,,,,,,,,,,,,,,,065,001,2023-04-26_16h26.14.078,exp_g1,2022.2.5,None,
77.0,l1,f,se,na,../audio/077.wav,,l1_f_se_na_077,,,,,,,../image/mashedpotatoes.png,../image/donut.png,donut,rshift,1,donut,mashedpotatoes,mashedpotatoes,donut,None,,,,,,,,,,0,4,4,16,,,,,,,,,,,,,,,,,,,49.43581366597209,49.654916708008386,rshift,1,1.950003958074376,49.67639662500005,50.41143229167598,,,,,,,,,,,,,,,065,001,2023-04-26_16h26.14.078,exp_g1,2022.2.5,None,
89.0,l1,f,sp,na,../audio/089.wav,,l1_f_sp_na_089,,,,,,,../image/bed.png,../image/wallet.png,wallet,rshift,1,wallet,bed,bed,wallet,None,,,,,,,,,,0,5,5,28,,,,,,,,,,,,,,,,,,,51.64154379093088,51.854876708006486,rshift,1,2.281374166952446,51.888380583026446,52.61125779169767,,,,,,,,,,,,,,,065,001,2023-04-26_16h26.14.078,exp_g1,2022.2.5,None,
75.0,l1,f,en,na,../audio/075.wav,,l1_f_en_na_075,,,,,,,../image/dog.png,../image/fish.png,fish,rshift,1,fish,dog,dog,fish,None,,,,,,,,,,0,6,6,14,,,,,,,,,,,,,,,,,,,54.1731410829816,54.38829575001728,rshift,1,2.251358916051686,54.42171270796098,55.14311824966377,,,,,,,,,,,,,,,065,001,2023-04-26_16h26.14.078,exp_g1,2022.2.5,None,
78.0,l1,f,se,na,../audio/078.wav,,l1_f_se_na_078,,,,,,,../image/airpods.png,../image/joycons.png,airpods,lshift,1,airpods,joycons,airpods,joycons,None,,,,,,,,,,0,7,7,17,,,,,,,,,,,,,,,,,,,56.67088983301073,56.89190775004681,lshift,1,1.952827790984884,56.90948270796798,57.6550097496404,,,,,,,,,,,,,,,065,001,2023-04-26_16h26.14.078,exp_g1,2022.2.5,None,
13.0,l1,t,es,na,../audio/013.wav,,l1_t_es_na_013,,,,,,,../image/beer.png,../image/wine.png,beer,lshift,1,beer,wine,beer,wine,None,,,,,,,,,,0,8,8,37,,,,,,,,,,,,,,,,,,,58.87812741601374,59.093856457970105,lshift,1,2.9986318331211805,59.125545916031115,59.85343412467434,,,,,,,,,,,,,,,065,001,2023-04-26_16h26.14.078,exp_g1,2022.2.5,None,
93.0,l1,f,sp,na,../audio/093.wav,,l1_f_sp_na_093,,,,,,,../image/boy.png,../image/book.png,book,rshift,1,book,boy,boy,book,None,,,,,,,,,,0,9,9,32,,,,,,,,,,,,,,,,,,,62.12801191594917,62.34562675002962,rshift,1,1.871691667009145,62.37167899997439,63.10490012466131,,,,,,,,,,,,,,,065,001,2023-04-26_16h26.14.078,exp_g1,2022.2.5,None,
91.0,l1,f,sp,na,../audio/091.wav,,l1_f_sp_na_091,,,,,,,../image/backpack.png,../image/bracelet.png,bracelet,rshift,1,bracelet,backpack,backpack,bracelet,None,,,,,,,,,,0,10,10,30,,,,,,,,,,,,,,,,,,,64.25546808296349,64.47152129095048,lshift,0,2.01823987509124,64.5049200829817,65.22807212471186,,,,,,,,,,,,,,,065,001,2023-04-26_16h26.14.078,exp_g1,2022.2.5,None,
12.0,l1,t,es,na,../audio/012.wav,,l1_t_es_na_012,,,,,,,../image/newspaper.png,../image/book.png,book,rshift,1,book,newspaper,newspaper,book,None,,,,,,,,,,0,11,11,36,,,,,,,,,,,,,,,,,,,66.52836583298631,66.7453012909973,rshift,1,2.798144125030376,66.77808025002014,67.50379312463726,,,,,,,,,,,,,,,065,001,2023-04-26_16h26.14.078,exp_g1,2022.2.5,None,
134.0,l1,t,es,f0u,../audio/134.wav,,l1_t_es_f0u_134,,,,,,,../image/basket.png,../image/truck.png,truck,rshift,1,truck,basket,basket,truck,None,,,,,,,,,,0,12,12,48,,,,,,,,,,,,,,,,,,,69.58236516604666,69.79453695798293,lshift,0,2.56705870910082,69.82537179102656,70.55447499960816,,,,,,,,,,,,,,,065,001,2023-04-26_16h26.14.078,exp_g1,2022.2.5,None,
87.0,l1,f,sp,na,../audio/087.wav,,l1_f_sp_na_087,,,,,,,../image/desk.png,../image/bed.png,bed,rshift,1,bed,desk,desk,bed,None,,,,,,,,,,0,13,13,26,,,,,,,,,,,,,,,,,,,72.39627645793371,72.61185274994932,rshift,1,2.2628228339599445,72.64421466598287,73.37150979164677,,,,,,,,,,,,,,,065,001,2023-04-26_16h26.14.078,exp_g1,2022.2.5,None,
67.0,l1,f,en,na,../audio/067.wav,,l1_f_en_na_067,,,,,,,../image/beer.png,../image/glasses.png,glasses,rshift,1,glasses,beer,beer,glasses,None,,,,,,,,,,0,14,14,6,,,,,,,,,,,,,,,,,,,74.90739745798055,75.12828141602222,rshift,1,2.2369053330039605,75.1548673750367,75.88817074970963,,,,,,,,,,,,,,,065,001,2023-04-26_16h26.14.078,exp_g1,2022.2.5,None,
64.0,l1,f,en,na,../audio/064.wav,,l1_f_en_na_064,,,,,,,../image/wallet.png,../image/key.png,wallet,lshift,1,wallet,key,wallet,key,None,,,,,,,,,,0,15,15,3,,,,,,,,,,,,,,,,,,,77.40654566604644,77.62125950003974,lshift,1,1.9230297080939636,77.654738000012,78.37604987464535,,,,,,,,,,,,,,,065,001,2023-04-26_16h26.14.078,exp_g1,2022.2.5,None,
90.0,l1,f,sp,na,../audio/090.wav,,l1_f_sp_na_090,,,,,,,../image/bag.png,../image/bottle.png,bag,lshift,1,bag,bottle,bag,bottle,None,,,,,,,,,,0,16,16,29,,,,,,,,,,,,,,,,,,,79.57402941596229,79.79520083300304,lshift,1,2.245410915929824,79.8216956659453,80.55469104164901,,,,,,,,,,,,,,,065,001,2023-04-26_16h26.14.078,exp_g1,2022.2.5,None,
138.0,l1,t,es,f0u,../audio/138.wav,,l1_t_es_f0u_138,,,,,,,../image/pants.png,../image/shirt.png,shirt,rshift,1,shirt,pants,pants,shirt,None,,,,,,,,,,0,17,17,52,,,,,,,,,,,,,,,,,,,82.07722704100888,82.29489675001241,rshift,1,2.561772207962349,82.32141029101331,83.05466691666904,,,,,,,,,,,,,,,065,001,2023-04-26_16h26.14.078,exp_g1,2022.2.5,None,
86.0,l1,f,sp,na,../audio/086.wav,,l1_f_sp_na_086,,,,,,,../image/plates.png,../image/glasses.png,plates,lshift,1,plates,glasses,plates,glasses,None,,,,,,,,,,0,18,18,25,,,,,,,,,,,,,,,,,,,84.89048858301248,85.11175466596615,lshift,1,2.07981558307074,85.13819941598922,85.8704678326069,,,,,,,,,,,,,,,065,001,2023-04-26_16h26.14.078,exp_g1,2022.2.5,None,
14.0,l1,t,es,na,../audio/014.wav,,l1_t_es_na_014,,,,,,,../image/book.png,../image/key.png,key,rshift,1,key,book,book,key,None,,,,,,,,,,0,19,19,38,,,,,,,,,,,,,,,,,,,87.22568925004452,87.44445624994114,rshift,1,2.3665820410242304,87.47143116593361,88.20489641669361,,,,,,,,,,,,,,,065,001,2023-04-26_16h26.14.078,exp_g1,2022.2.5,None,
92.0,l1,f,sp,na,../audio/092.wav,,l1_f_sp_na_092,,,,,,,../image/armchair.png,../image/dog.png,armchair,lshift,1,armchair,dog,armchair,dog,None,,,,,,,,,,0,20,20,31,,,,,,,,,,,,,,,,,,,89.84914270800073,90.06179737497587,lshift,1,2.1495737499790266,90.09480500000063,90.821386916625,,,,,,,,,,,,,,,065,001,2023-04-26_16h26.14.078,exp_g1,2022.2.5,None,
70.0,l1,f,en,na,../audio/070.wav,,l1_f_en_na_070,,,,,,,../image/computer.png,../image/bed.png,computer,lshift,1,computer,bed,computer,bed,None,,,,,,,,,,0,21,21,9,,,,,,,,,,,,,,,,,,,92.24609345803037,92.46135279093869,lshift,1,2.053155375062488,92.49436633300502,93.22136945760964,,,,,,,,,,,,,,,065,001,2023-04-26_16h26.14.078,exp_g1,2022.2.5,None,
61.0,l1,f,en,na,../audio/061.wav,,l1_f_en_na_061,,,,,,,../image/cat.png,../image/dog.png,dog,rshift,1,dog,cat,cat,dog,../image/,,,,,,,,,,0,22,22,0,,,,,,,,,,,,,,,,,,,94.55425795796327,94.77037079096772,rshift,1,1.5968302079709247,94.80474462499842,95.52926195768329,,,,,,,,,,,,,,,065,001,2023-04-26_16h26.14.078,exp_g1,2022.2.5,None,
95.0,l1,f,sp,na,../audio/095.wav,,l1_f_sp_na_095,,,,,,,../image/socks.png,../image/key.png,key,rshift,1,key,socks,socks,key,None,,,,,,,,,,0,23,23,34,,,,,,,,,,,,,,,,,,,96.39991487504449,96.62013795797247,rshift,1,2.109155375044793,96.64224758301862,97.3758461246655,,,,,,,,,,,,,,,065,001,2023-04-26_16h26.14.078,exp_g1,2022.2.5,None,
19.0,l1,t,es,na,../audio/019.wav,,l1_t_es_na_019,,,,,,,../image/boy.png,../image/dog.png,boy,lshift,1,boy,dog,boy,dog,None,,,,,,,,,,0,24,24,43,,,,,,,,,,,,,,,,,,,98.76641145802569,98.98706437496003,lshift,1,2.885078415973112,99.00878875004128,99.74224908260318,,,,,,,,,,,,,,,065,001,2023-04-26_16h26.14.078,exp_g1,2022.2.5,None,
68.0,l1,f,en,na,../audio/068.wav,,l1_f_en_na_068,,,,,,,../image/socks.png,../image/book.png,socks,lshift,1,socks,book,socks,book,None,,,,,,,,,,0,25,25,7,,,,,,,,,,,,,,,,,,,101.90452333295252,102.12825470801909,lshift,1,2.0177859159884974,102.15473033301532,102.87775870768043,,,,,,,,,,,,,,,065,001,2023-04-26_16h26.14.078,exp_g1,2022.2.5,None,
79.0,l1,f,se,na,../audio/079.wav,,l1_f_se_na_079,,,,,,,../image/sweatpants.png,../image/jeans.png,jeans,rshift,1,jeans,sweatpants,sweatpants,jeans,None,,,,,,,,,,0,26,26,18,,,,,,,,,,,,,,,,,,,104.18040149996523,104.40336687501986,rshift,1,2.51991158304736,104.42793616594281,105.16158733267027,,,,,,,,,,,,,,,065,001,2023-04-26_16h26.14.078,exp_g1,2022.2.5,None,
65.0,l1,f,en,na,../audio/065.wav,,l1_f_en_na_065,,,,,,,../image/computer.png,../image/book.png,book,rshift,1,book,computer,computer,book,None,,,,,,,,,,0,27,27,4,,,,,,,,,,,,,,,,,,,106.96027870802209,107.17808374995366,rshift,1,1.7947468750644475,107.20457125001121,107.93765420763908,,,,,,,,,,,,,,,065,001,2023-04-26_16h26.14.078,exp_g1,2022.2.5,None,
83.0,l1,f,se,na,../audio/083.wav,,l1_f_se_na_083,,,,,,,../image/donut.png,../image/burger.png,burger,rshift,1,burger,donut,donut,burger,None,,,,,,,,,,0,28,28,22,,,,,,,,,,,,,,,,,,,109.01708345802035,109.22793158295099,rshift,1,1.9890690421452746,109.26109545794316,109.98810908262773,,,,,,,,,,,,,,,065,001,2023-04-26_16h26.14.078,exp_g1,2022.2.5,None,
81.0,l1,f,se,na,../audio/081.wav,,l1_f_se_na_081,,,,,,,../image/boxers.png,../image/sweatpants.png,sweatpants,rshift,1,sweatpants,boxers,boxers,sweatpants,None,,,,,,,,,,0,29,29,20,,,,,,,,,,,,,,,,,,,111.2572255829582,111.4699979579309,rshift,1,2.8324116250732914,111.5030320410151,112.2283112076732,,,,,,,,,,,,,,,065,001,2023-04-26_16h26.14.078,exp_g1,2022.2.5,None,
16.0,l1,t,es,na,../audio/016.wav,,l1_t_es_na_016,,,,,,,../image/flipflops.png,../image/bag.png,bag,rshift,1,bag,flipflops,flipflops,bag,None,,,,,,,,,,0,30,30,40,,,,,,,,,,,,,,,,,,,114.3381281660404,114.553204332944,rshift,1,2.959787459112704,114.57749583304394,115.31035258266299,,,,,,,,,,,,,,,065,001,2023-04-26_16h26.14.078,exp_g1,2022.2.5,None,
66.0,l1,f,en,na,../audio/066.wav,,l1_f_en_na_066,,,,,,,../image/bag.png,../image/scarf.png,bag,lshift,1,bag,scarf,bag,scarf,None,,,,,,,,,,0,31,31,5,,,,,,,,,,,,,,,,,,,117.55408941593487,117.75788299995475,lshift,1,2.2526747919619083,117.79119241598528,118.5211566246037,,,,,,,,,,,,,,,065,001,2023-04-26_16h26.14.078,exp_g1,2022.2.5,None,
73.0,l1,f,en,na,../audio/073.wav,,l1_f_en_na_073,,,,,,,../image/socks.png,../image/tshirt.png,tshirt,rshift,1,tshirt,socks,socks,tshirt,None,,,,,,,,,,0,32,32,12,,,,,,,,,,,,,,,,,,,120.05613054102287,120.27104266593233,rshift,1,2.1889769580448046,120.30448900000192,121.02810324967528,,,,,,,,,,,,,,,065,001,2023-04-26_16h26.14.078,exp_g1,2022.2.5,None,
85.0,l1,f,se,na,../audio/085.wav,,l1_f_se_na_085,,,,,,,../image/loafers.png,../image/sneakers.png,sneakers,rshift,1,sneakers,loafers,loafers,sneakers,None,,,,,,,,,,0,33,33,24,,,,,,,,,,,,,,,,,,,122.49767412501387,122.71113554097246,rshift,1,2.5078365000663325,122.74394845799543,123.46996112465082,,,,,,,,,,,,,,,065,001,2023-04-26_16h26.14.078,exp_g1,2022.2.5,None,
76.0,l1,f,se,na,../audio/076.wav,,l1_f_se_na_076,,,,,,,../image/hotdog.png,../image/burger.png,hotdog,lshift,1,hotdog,burger,hotdog,burger,None,,,,,,,,,,0,34,34,15,,,,,,,,,,,,,,,,,,,125.25798920798115,125.4708410409512,lshift,1,2.084878708119504,125.50462362496182,126.22761562461189,,,,,,,,,,,,,,,065,001,2023-04-26_16h26.14.078,exp_g1,2022.2.5,None,
20.0,l1,t,es,na,../audio/020.wav,,l1_t_es_na_020,,,,,,,../image/cellphone.png,../image/backpack.png,backpack,rshift,1,backpack,cellphone,cellphone,backpack,None,,,,,,,,,,0,35,35,44,,,,,,,,,,,,,,,,,,,127.59600699995644,127.80943045800086,rshift,1,2.4960697080241516,127.841721707955,128.5711897496988,,,,,,,,,,,,,,,065,001,2023-04-26_16h26.14.078,exp_g1,2022.2.5,None,
18.0,l1,t,es,na,../audio/018.wav,,l1_t_es_na_018,,,,,,,../image/cups.png,../image/napkins.png,napkins,rshift,1,napkins,cups,cups,napkins,None,,,,,,,,,,0,36,36,42,,,,,,,,,,,,,,,,,,,130.34174083301332,130.56154770799913,lshift,0,2.986363959033042,130.58777854102664,131.32120687462546,,,,,,,,,,,,,,,065,001,2023-04-26_16h26.14.078,exp_g1,2022.2.5,None,
84.0,l1,f,se,na,../audio/084.wav,,l1_f_se_na_084,,,,,,,../image/penthouse.png,../image/rocket.png,penthouse,lshift,1,penthouse,rocket,penthouse,rocket,None,,,,,,,,,,0,37,37,23,,,,,,,,,,,,,,,,,,,133.58824970794376,133.80302395799663,lshift,1,2.6910757090663537,133.82759554102086,134.5607336667056,,,,,,,,,,,,,,,065,001,2023-04-26_16h26.14.078,exp_g1,2022.2.5,None,
133.0,l1,t,es,f0u,../audio/133.wav,,l1_t_es_f0u_133,,,,,,,../image/cellphone.png,../image/book.png,cellphone,lshift,1,cellphone,book,cellphone,book,None,,,,,,,,,,0,38,38,47,,,,,,,,,,,,,,,,,,,136.527963874978,136.7441000000108,lshift,1,2.6671715839765966,136.77703016600572,137.5045977916491,,,,,,,,,,,,,,,065,001,2023-04-26_16h26.14.078,exp_g1,2022.2.5,None,
132.0,l1,t,es,f0u,../audio/132.wav,,l1_t_es_f0u_132,,,,,,,../image/car.png,../image/grandma.png,grandma,rshift,1,grandma,car,car,grandma,None,,,,,,,,,,0,39,39,46,,,,,,,,,,,,,,,,,,,139.45399233303033,139.67087437503505,rshift,1,2.2503817920805886,139.70449295802973,140.42739945761085,,,,,,,,,,,,,,,065,001,2023-04-26_16h26.14.078,exp_g1,2022.2.5,None,
71.0,l1,f,en,na,../audio/071.wav,,l1_f_en_na_071,,,,,,,../image/wallet.png,../image/plane.png,plane,rshift,1,plane,wallet,wallet,plane,None,,,,,,,,,,0,40,40,10,,,,,,,,,,,,,,,,,,,141.94874995795544,142.17043208295945,rshift,1,2.659649375011213,142.19217279099394,142.92733237467863,,,,,,,,,,,,,,,065,001,2023-04-26_16h26.14.078,exp_g1,2022.2.5,None,
74.0,l1,f,en,na,../audio/074.wav,,l1_f_en_na_074,,,,,,,../image/boy.png,../image/woman.png,boy,lshift,1,boy,woman,boy,woman,None,,,,,,,,,,0,41,41,13,,,,,,,,,,,,,,,,,,,144.8690572079504,145.08747212495655,lshift,1,1.8265415829373524,145.10931054095272,145.84300879162427,,,,,,,,,,,,,,,065,001,2023-04-26_16h26.14.078,exp_g1,2022.2.5,None,
17.0,l1,t,es,na,../audio/017.wav,,l1_t_es_na_017,,,,,,,../image/jug.png,../image/cat.png,jug,lshift,1,jug,cat,jug,cat,None,,,,,,,,,,0,42,42,41,,,,,,,,,,,,,,,,,,,146.9531105409842,147.17091912496835,lshift,1,2.6964357499964535,147.1917211250402,147.9276007495976,,,,,,,,,,,,,,,065,001,2023-04-26_16h26.14.078,exp_g1,2022.2.5,None,
72.0,l1,f,en,na,../audio/072.wav,,l1_f_en_na_072,,,,,,,../image/dog.png,../image/fish.png,dog,lshift,1,dog,fish,dog,fish,None,,,,,,,,,,0,43,43,11,,,,,,,,,,,,,,,,,,,149.90242075000424,150.11152737494558,lshift,1,2.063160500023514,150.14346549997572,150.8710554576867,,,,,,,,,,,,,,,065,001,2023-04-26_16h26.14.078,exp_g1,2022.2.5,None,
94.0,l1,f,sp,na,../audio/094.wav,,l1_f_sp_na_094,,,,,,,../image/beer.png,../image/horchata.png,beer,lshift,1,beer,horchata,beer,horchata,None,,,,,,,,,,0,44,44,33,,,,,,,,,,,,,,,,,,,152.20818429102656,152.427748707938,lshift,1,2.5444316669600084,152.45428662502673,153.18767604168195,,,,,,,,,,,,,,,065,001,2023-04-26_16h26.14.078,exp_g1,2022.2.5,None,
131.0,l1,t,es,f0u,../audio/131.wav,,l1_t_es_f0u_131,,,,,,,../image/cat.png,../image/flower.png,cat,lshift,1,cat,flower,cat,flower,None,,,,,,,,,,0,45,45,45,,,,,,,,,,,,,,,,,,,155.00944220798556,155.22776683303528,lshift,1,2.155837625032291,155.25440320803318,155.98721083259832,,,,,,,,,,,,,,,065,001,2023-04-26_16h26.14.078,exp_g1,2022.2.5,None,
11.0,l1,t,es,na,../audio/011.wav,,l1_t_es_na_011,,,,,,,../image/armchair.png,../image/bed.png,armchair,lshift,1,armchair,bed,armchair,bed,None,,,,,,,,,,0,46,46,35,,,,,,,,,,,,,,,,,,,157.4241050829878,157.63748987496365,rshift,0,3.217890292056836,157.67070124996826,158.39416891668614,,,,,,,,,,,,,,,065,001,2023-04-26_16h26.14.078,exp_g1,2022.2.5,None,
62.0,l1,f,en,na,../audio/062.wav,,l1_f_en_na_062,,,,,,,../image/shoe.png,../image/ring.png,shoe,lshift,1,shoe,ring,shoe,ring,None,,,,,,,,,,0,47,47,1,,,,,,,,,,,,,,,,,,,160.89242854097392,161.11072204099037,lshift,1,2.2334907500771806,161.13755554100499,161.87001374963828,,,,,,,,,,,,,,,065,001,2023-04-26_16h26.14.078,exp_g1,2022.2.5,None,
136.0,l1,t,es,f0u,../audio/136.wav,,l1_t_es_f0u_136,,,,,,,../image/city.png,../image/village.png,village,rshift,1,village,city,city,village,None,,,,,,,,,,0,48,48,50,,,,,,,,,,,,,,,,,,,163.389169165981,163.60308787494432,rshift,1,2.865509875002317,163.6375309160212,164.36122699961223,,,,,,,,,,,,,,,065,001,2023-04-26_16h26.14.078,exp_g1,2022.2.5,None,
139.0,l1,t,es,f0u,../audio/139.wav,,l1_t_es_f0u_139,,,,,,,../image/restaurant.png,../image/hotel.png,restaurant,lshift,1,restaurant,hotel,restaurant,hotel,None,,,,,,,,,,0,49,49,53,,,,,,,,,,,,,,,,,,,166.5076228750404,166.72080845793243,lshift,1,2.774440792039968,166.75427050003782,167.4773645826538,,,,,,,,,,,,,,,065,001,2023-04-26_16h26.14.078,exp_g1,2022.2.5,None,
88.0,l1,f,sp,na,../audio/088.wav,,l1_f_sp_na_088,,,,,,,../image/book.png,../image/cellphone.png,book,lshift,1,book,cellphone,book,cellphone,None,,,,,,,,,,0,50,50,27,,,,,,,,,,,,,,,,,,,169.5402966659749,169.75417516601738,lshift,1,2.146223457995802,169.7873998329742,170.51169745769974,,,,,,,,,,,,,,,065,001,2023-04-26_16h26.14.078,exp_g1,2022.2.5,None,
80.0,l1,f,se,na,../audio/080.wav,,l1_f_se_na_080,,,,,,,../image/mouse.png,../image/rat.png,mouse,lshift,1,mouse,rat,mouse,rat,None,,,,,,,,,,0,51,51,19,,,,,,,,,,,,,,,,,,,171.936306291027,172.15405054099392,rshift,0,1.974483500001952,172.17554895801004,172.91093387460958,,,,,,,,,,,,,,,065,001,2023-04-26_16h26.14.078,exp_g1,2022.2.5,None,
63.0,l1,f,en,na,../audio/063.wav,,l1_f_en_na_063,,,,,,,../image/woman.png,../image/man.png,man,rshift,1,man,woman,woman,man,None,,,,,,,,,,0,52,52,2,,,,,,,,,,,,,,,,,,,174.170886915992,174.37768054101616,rshift,1,1.796138625126332,174.4099587079836,175.13753916667,,,,,,,,,,,,,,,065,001,2023-04-26_16h26.14.078,exp_g1,2022.2.5,None,
137.0,l1,t,es,f0u,../audio/137.wav,,l1_t_es_f0u_137,,,,,,,../image/jacket.png,../image/shirt.png,jacket,lshift,1,jacket,shirt,jacket,shirt,None,,,,,,,,,,0,53,53,51,,,,,,,,,,,,,,,,,,,176.21644129103515,176.4275970000308,lshift,1,2.082729500019923,176.45880050002597,177.1870157076667,,,,,,,,,,,,,,,065,001,2023-04-26_16h26.14.078,exp_g1,2022.2.5,None,
15.0,l1,t,es,na,../audio/015.wav,,l1_t_es_na_015,,,,,,,../image/glasses.png,../image/jacket.png,glasses,lshift,1,glasses,jacket,glasses,jacket,None,,,,,,,,,,0,54,54,39,,,,,,,,,,,,,,,,,,,178.5445521660149,178.76014525000937,lshift,1,2.132350708008744,178.78726962499786,179.52097304159932,,,,,,,,,,,,,,,065,001,2023-04-26_16h26.14.078,exp_g1,2022.2.5,None,
tr1,lt,tr,en,na,../practice_trial/audio/tr1.wav,Where are your kids?,lt_tr_en_na_tr1,-,-,-,-,-,-,../image/america.png,../image/spain.png,,,,,,,,,,,,,,,,,,,,,,0,0,0,0,0,0,0,0,,,,,,,,,,,,,,,,,,247.853826125036,248.0537467909744,248.09316391602624,248.80368408264283,253.06467337498907,['lshift'],[1.5931835420196876],,,,,,,,065,001,2023-04-26_16h26.14.078,exp_g1,2022.2.5,None,
tr2,lt,tr,en,na,../practice_trial/audio/tr2.wav,Who is buying my car?,lt_tr_en_na_tr2,-,-,-,-,-,-,../image/america.png,../image/spain.png,,,,,,,,,,,,,,,,,,,,,,0,0,0,0,0,1,1,1,,,,,,,,,,,,,,,,,,253.06467337498907,253.2940355000319,253.30848295800388,254.0535751246537,258.3151448329445,['lshift'],[1.6446197079494596],,,,,,,,065,001,2023-04-26_16h26.14.078,exp_g1,2022.2.5,None,
tr3,lt,tr,sp,na,../practice_trial/audio/tr3.wav,¿Dónde está mi perro?,lt_tr_sp_na_tr3,-,-,-,-,-,-,../image/america.png,../image/spain.png,,,,,,,,,,,,,,,,,,,,,,0,0,0,0,0,2,2,2,,,,,,,,,,,,,,,,,,258.3151448329445,258.54374920798,258.55819754104596,259.30375666666464,263.5529621250462,['rshift'],[2.090639000060037],,,,,,,,065,001,2023-04-26_16h26.14.078,exp_g1,2022.2.5,None,
tr4,lt,tr,sp,na,../practice_trial/audio/tr4.wav,¿De quién es la bolsa?,lt_tr_sp_na_tr4,-,-,-,-,-,-,../image/america.png,../image/spain.png,,,,,,,,,,,,,,,,,,,,,,0,0,0,0,0,3,3,3,,,,,,,,,,,,,,,,,,263.5529621250462,263.7936018749606,263.7936018749606,264.55351266666935,268.8039780409308,['rshift'],[2.465778165962547],,,,,,,,065,001,2023-04-26_16h26.14.078,exp_g1,2022.2.5,None,
tr5,lt,tr,se,na,../practice_trial/audio/tr5.wav,¿Dónde encontraste sus donuts?,lt_tr_se_na_tr5,-,-,-,-,-,-,../image/america.png,../image/spain.png,,,,,,,,,,,,,,,,,,,,,,0,0,0,0,0,4,4,4,,,,,,,,,,,,,,,,,,268.8039780409308,269.04343445796985,269.04343445796985,269.8088713326181,274.05346583295614,['rshift'],[1.5621409580344334],,,,,,,,065,001,2023-04-26_16h26.14.078,exp_g1,2022.2.5,None,
tr6,lt,tr,se,na,../practice_trial/audio/tr6.wav,¿Cuándo compraste tu sweater?,lt_tr_se_na_tr6,-,-,-,-,-,-,../image/america.png,../image/spain.png,,,,,,,,,,,,,,,,,,,,,,0,0,0,0,0,5,5,5,,,,,,,,,,,,,,,,,,274.05346583295614,274.3022272499511,274.3022272499511,275.05349216662967,279.31081329099834,['rshift'],[1.5398060830775648],,,,,,,,065,001,2023-04-26_16h26.14.078,exp_g1,2022.2.5,None,
tr7,lt,tr,es,na,../practice_trial/audio/tr7.wav,Why do you have my camisa?,lt_tr_es_na_tr7,-,-,-,-,-,-,../image/america.png,../image/spain.png,,,,,,,,,,,,,,,,,,,,,,0,0,0,0,0,6,6,6,,,,,,,,,,,,,,,,,,279.31081329099834,279.5430824579671,279.5590857079951,280.30866783269835,284.5537145830458,"['lshift', 'rshift']","[1.678653541021049, 2.2889986250083894]",,,,,,,,065,001,2023-04-26_16h26.14.078,exp_g1,2022.2.5,None,
tr8,lt,tr,es,na,../practice_trial/audio/tr8.wav,Where did you find his chanclas?,lt_tr_es_na_tr8,-,-,-,-,-,-,../image/america.png,../image/spain.png,,,,,,,,,,,,,,,,,,,,,,0,0,0,0,0,7,7,7,,,,,,,,,,,,,,,,,,284.5537145830458,284.792900832952,284.792900832952,285.55849395768405,289.7855540829478,"['lshift', 'rshift']","[1.498511208104901, 2.115279750083573]",,,,,,,,065,001,2023-04-26_16h26.14.078,exp_g1,2022.2.5,None,
,,,,,,,,,,,,,,,,,,,,,,,,,,,,,,,,,,,,,0,0,0,0,,,,,,,,,,,,,,,,,,,,,,,,,,,,,,,,,,,,065,001,2023-04-26_16h26.14.078,exp_g1,2022.2.5,None,
98.0,l2,f,en,na,../audio/098.wav,,l2_f_en_na_098,,,,,,,../image/america.png,../image/spain.png,,,2,america,spain,,,,None,,,,,,,,,,,,,,,,,,,,,0,0,0,2,,,,,,,,,,,,,,,,,,,,,296.70610854099505,296.90974291600287,296.9532977079507,297.6594395416944,301.9220295000123,"['lshift', 'lshift']","[-0.44850095896981657, 1.483769082929939]",065,001,2023-04-26_16h26.14.078,exp_g1,2022.2.5,None,
166.0,l2,t,es,f0c,../audio/166.wav,,l2_t_es_f0c_166,,,,,,,../image/america.png,../image/spain.png,,,2,america,spain,,,,1,,,,,,,,,,,,,,,,,,,,,0,1,1,50,,,,,,,,,,,,,,,,,,,,,301.9220295000123,302.15179641603027,302.16988216596656,302.91030354163763,307.1624012909597,"['lshift', 'rshift']","[1.56891725002788, 3.055687375017442]",065,001,2023-04-26_16h26.14.078,exp_g1,2022.2.5,None,
97.0,l2,f,en,na,../audio/097.wav,,l2_f_en_na_097,,,,,,,../image/america.png,../image/spain.png,,,2,america,spain,,,,None,,,,,,,,,,,,,,,,,,,,,0,2,2,1,,,,,,,,,,,,,,,,,,,,,307.1624012909597,307.41028970794287,307.41028970794287,308.15926512465035,312.43101758300327,['lshift'],[1.2291259170742705],065,001,2023-04-26_16h26.14.078,exp_g1,2022.2.5,None,
104.0,l2,f,en,na,../audio/104.wav,,l2_f_en_na_104,,,,,,,../image/america.png,../image/spain.png,,,2,america,spain,,,,None,,,,,,,,,,,,,,,,,,,,,0,3,3,8,,,,,,,,,,,,,,,,,,,,,312.43101758300327,312.65312729100697,312.6745781250065,313.4193196666349,317.66294624994043,['lshift'],[1.406180875026621],065,001,2023-04-26_16h26.14.078,exp_g1,2022.2.5,None,
29.0,l2,t,es,na,../audio/029.wav,,l2_t_es_na_029,,,,,,,../image/america.png,../image/spain.png,,,2,america,spain,,,,1,,,,,,,,,,,,,,,,,,,,,0,4,4,43,,,,,,,,,,,,,,,,,,,,,317.66294624994043,317.9027321250178,317.9092012499459,318.6603738746528,322.9136109999381,"['lshift', 'rshift']","[1.2588738750200719, 2.553305583074689]",065,001,2023-04-26_16h26.14.078,exp_g1,2022.2.5,None,
108.0,l2,f,en,na,../audio/108.wav,,l2_f_en_na_108,,,,,,,../image/america.png,../image/spain.png,,,2,america,spain,,,,None,,,,,,,,,,,,,,,,,,,,,0,5,5,12,,,,,,,,,,,,,,,,,,,,,322.9136109999381,323.1518039579969,323.15803179098293,323.9109201667054,328.16114087495953,"['lshift', 'lshift']","[1.3025056249462068, 2.3211351670324802]",065,001,2023-04-26_16h26.14.078,exp_g1,2022.2.5,None,
120.0,l2,f,se,na,../audio/120.wav,,l2_f_se_na_120,,,,,,,../image/america.png,../image/spain.png,,,2,america,spain,,,,1,,,,,,,,,,,,,,,,,,,,,0,6,6,24,,,,,,,,,,,,,,,,,,,,,328.16114087495953,328.40814299997874,328.40814299997874,329.16851129167867,333.4203197499737,"['rshift', 'lshift']","[2.0255492090946063, 3.745808875071816]",065,001,2023-04-26_16h26.14.078,exp_g1,2022.2.5,None,
126.0,l2,f,sp,na,../audio/126.wav,,l2_f_sp_na_126,,,,,,,../image/america.png,../image/spain.png,,,2,america,spain,,,,None,,,,,,,,,,,,,,,,,,,,,0,7,7,30,,,,,,,,,,,,,,,,,,,,,333.4203197499737,333.65920816594735,333.65920816594735,334.419894582654,338.6633263749536,['rshift'],[1.9085131250321865],065,001,2023-04-26_16h26.14.078,exp_g1,2022.2.5,None,
165.0,l2,t,es,f0c,../audio/165.wav,,l2_t_es_f0c_165,,,,,,,../image/america.png,../image/spain.png,,,2,america,spain,,,,1,,,,,,,,,,,,,,,,,,,,,0,8,8,49,,,,,,,,,,,,,,,,,,,,,338.6633263749536,338.90949641598854,338.90949641598854,339.6591806247054,343.91924095794093,"['lshift', 'rshift']","[1.301053083036095, 2.097628957941197]",065,001,2023-04-26_16h26.14.078,exp_g1,2022.2.5,None,
27.0,l2,t,es,na,../audio/027.wav,,l2_t_es_na_027,,,,,,,../image/america.png,../image/spain.png,,,2,america,spain,,,,1,,,,,,,,,,,,,,,,,,,,,0,9,9,41,,,,,,,,,,,,,,,,,,,,,343.91924095794093,344.15187766600866,344.15855245804414,344.90996024961737,349.16324808297213,"['lshift', 'rshift']","[1.3267213749932125, 1.9446583340177312]",065,001,2023-04-26_16h26.14.078,exp_g1,2022.2.5,None,
110.0,l2,f,en,na,../audio/110.wav,,l2_f_en_na_110,,,,,,,../image/america.png,../image/spain.png,,,2,america,spain,,,,None,,,,,,,,,,,,,,,,,,,,,0,10,10,14,,,,,,,,,,,,,,,,,,,,,349.16324808297213,349.4014922500355,349.40813458303455,350.1695652076198,354.4168347499799,['lshift'],[1.3950681660789996],065,001,2023-04-26_16h26.14.078,exp_g1,2022.2.5,None,
116.0,l2,f,se,na,../audio/116.wav,,l2_f_se_na_116,,,,,,,../image/america.png,../image/spain.png,,,2,america,spain,,,,1,,,,,,,,,,,,,,,,,,,,,0,11,11,20,,,,,,,,,,,,,,,,,,,,,354.4168347499799,354.6593091660179,354.6593091660179,355.4100589577031,359.6726048330311,['rshift'],[1.4778295410797],065,001,2023-04-26_16h26.14.078,exp_g1,2022.2.5,None,
122.0,l2,f,sp,na,../audio/122.wav,,l2_f_sp_na_122,,,,,,,../image/america.png,../image/spain.png,,,2,america,spain,,,,None,,,,,,,,,,,,,,,,,,,,,0,12,12,26,,,,,,,,,,,,,,,,,,,,,359.6726048330311,359.9102822910063,359.9179282080149,360.6695533326749,364.9200928750215,"['lshift', 'rshift']","[1.2359805409796536, 2.0154325830517337]",065,001,2023-04-26_16h26.14.078,exp_g1,2022.2.5,None,
117.0,l2,f,se,na,../audio/117.wav,,l2_f_se_na_117,,,,,,,../image/america.png,../image/spain.png,,,2,america,spain,,,,1,,,,,,,,,,,,,,,,,,,,,0,13,13,21,,,,,,,,,,,,,,,,,,,,,364.9200928750215,365.15990054095164,365.15990054095164,365.91938991664597,370.1808625829872,['rshift'],[2.4968217499554157],065,001,2023-04-26_16h26.14.078,exp_g1,2022.2.5,None,
127.0,l2,f,sp,na,../audio/127.wav,,l2_f_sp_na_127,,,,,,,../image/america.png,../image/spain.png,,,2,america,spain,,,,None,,,,,,,,,,,,,,,,,,,,,0,14,14,31,,,,,,,,,,,,,,,,,,,,,370.1808625829872,370.4093400409911,370.4242695409339,371.1689740416516,375.41999937500805,['rshift'],[1.349257625057362],065,001,2023-04-26_16h26.14.078,exp_g1,2022.2.5,None,
124.0,l2,f,sp,na,../audio/124.wav,,l2_f_sp_na_124,,,,,,,../image/america.png,../image/spain.png,,,2,america,spain,,,,None,,,,,,,,,,,,,,,,,,,,,0,15,15,28,,,,,,,,,,,,,,,,,,,,,375.41999937500805,375.6593555000145,375.6593555000145,376.4096272916688,380.6705687500071,['rshift'],[1.3709983750013635],065,001,2023-04-26_16h26.14.078,exp_g1,2022.2.5,None,
101.0,l2,f,en,na,../audio/101.wav,,l2_f_en_na_101,,,,,,,../image/america.png,../image/spain.png,,,2,america,spain,,,,None,,,,,,,,,,,,,,,,,,,,,0,16,16,5,,,,,,,,,,,,,,,,,,,,,380.6705687500071,380.9011428329395,380.9194439579733,381.66945883265385,385.9148225829704,['lshift'],[1.218857791973278],065,001,2023-04-26_16h26.14.078,exp_g1,2022.2.5,None,
24.0,l2,t,es,na,../audio/024.wav,,l2_t_es_na_024,,,,,,,../image/america.png,../image/spain.png,,,2,america,spain,,,,1,,,,,,,,,,,,,,,,,,,,,0,17,17,38,,,,,,,,,,,,,,,,,,,,,385.9148225829704,386.1597929999698,386.1597929999698,386.9101368747108,391.17163854104,"['lshift', 'rshift']","[1.5290921670384705, 2.2299840840278193]",065,001,2023-04-26_16h26.14.078,exp_g1,2022.2.5,None,
130.0,l2,f,sp,na,../audio/130.wav,,l2_f_sp_na_130,,,,,,,../image/america.png,../image/spain.png,,,2,america,spain,,,,None,,,,,,,,,,,,,,,,,,,,,0,18,18,34,,,,,,,,,,,,,,,,,,,,,391.17163854104,391.40115158294793,391.4190370000433,392.1692739576722,396.4133714999771,['rshift'],[1.3065010419813916],065,001,2023-04-26_16h26.14.078,exp_g1,2022.2.5,None,
121.0,l2,f,sp,na,../audio/121.wav,,l2_f_sp_na_121,,,,,,,../image/america.png,../image/spain.png,,,2,america,spain,,,,None,,,,,,,,,,,,,,,,,,,,,0,19,19,25,,,,,,,,,,,,,,,,,,,,,396.4133714999771,396.658908415935,396.658908415935,397.4192776246384,401.6795368749881,['rshift'],[1.3715163751039654],065,001,2023-04-26_16h26.14.078,exp_g1,2022.2.5,None,
99.0,l2,f,en,na,../audio/099.wav,,l2_f_en_na_099,,,,,,,../image/america.png,../image/spain.png,,,2,america,spain,,,,None,,,,,,,,,,,,,,,,,,,,,0,20,20,3,,,,,,,,,,,,,,,,,,,,,401.6795368749881,401.90963137499057,401.92362220794894,402.6604107076457,406.92009050003253,['lshift'],[1.777187459054403],065,001,2023-04-26_16h26.14.078,exp_g1,2022.2.5,None,
115.0,l2,f,se,na,../audio/115.wav,,l2_f_se_na_115,,,,,,,../image/america.png,../image/spain.png,,,2,america,spain,,,,1,,,,,,,,,,,,,,,,,,,,,0,21,21,19,,,,,,,,,,,,,,,,,,,,,406.92009050003253,407.1591258329572,407.1591258329572,407.9094355416639,412.17189379094634,"['rshift', 'lshift']","[1.3207523750606924, 2.4536500830436125]",065,001,2023-04-26_16h26.14.078,exp_g1,2022.2.5,None,
169.0,l2,t,es,f0c,../audio/169.wav,,l2_t_es_f0c_169,,,,,,,../image/america.png,../image/spain.png,,,2,america,spain,,,,1,,,,,,,,,,,,,,,,,,,,,0,22,22,53,,,,,,,,,,,,,,,,,,,,,412.17189379094634,412.40947850001976,412.4188228750136,413.1596802076713,417.4193549579941,"['lshift', 'rshift']","[1.8507127499906346, 2.6955040000611916]",065,001,2023-04-26_16h26.14.078,exp_g1,2022.2.5,None,
22.0,l2,t,es,na,../audio/022.wav,,l2_t_es_na_022,,,,,,,../image/america.png,../image/spain.png,,,2,america,spain,,,,1,,,,,,,,,,,,,,,,,,,,,0,23,23,36,,,,,,,,,,,,,,,,,,,,,417.4193549579941,417.65900720795617,417.65900720795617,418.40907091665235,422.6697681249352,"['lshift', 'rshift']","[1.4183799580205232, 2.232183458050713]",065,001,2023-04-26_16h26.14.078,exp_g1,2022.2.5,None,
162.0,l2,t,es,f0c,../audio/162.wav,,l2_t_es_f0c_162,,,,,,,../image/america.png,../image/spain.png,,,2,america,spain,,,,1,,,,,,,,,,,,,,,,,,,,,0,24,24,46,,,,,,,,,,,,,,,,,,,,,422.6697681249352,422.9086737500038,422.9086737500038,423.65970845771176,427.92743366595823,"['lshift', 'rshift']","[1.4346522920532152, 2.171024167095311]",065,001,2023-04-26_16h26.14.078,exp_g1,2022.2.5,None,
109.0,l2,f,en,na,../audio/109.wav,,l2_f_en_na_109,,,,,,,../image/america.png,../image/spain.png,,,2,america,spain,,,,None,,,,,,,,,,,,,,,,,,,,,0,25,25,13,,,,,,,,,,,,,,,,,,,,,427.92743366595823,428.1592955410015,428.17375133302994,428.91007891664435,433.16975808294956,['lshift'],[1.3207392499316484],065,001,2023-04-26_16h26.14.078,exp_g1,2022.2.5,None,
118.0,l2,f,se,na,../audio/118.wav,,l2_f_se_na_118,,,,,,,../image/america.png,../image/spain.png,,,2,america,spain,,,,1,,,,,,,,,,,,,,,,,,,,,0,26,26,22,,,,,,,,,,,,,,,,,,,,,433.16975808294956,433.4092445829883,433.4092445829883,434.16927237465666,438.4148150830297,['rshift'],[1.3366965419845656],065,001,2023-04-26_16h26.14.078,exp_g1,2022.2.5,None,
167.0,l2,t,es,f0c,../audio/167.wav,,l2_t_es_f0c_167,,,,,,,../image/america.png,../image/spain.png,,,2,america,spain,,,,1,,,,,,,,,,,,,,,,,,,,,0,27,27,51,,,,,,,,,,,,,,,,,,,,,438.4148150830297,438.65889133303426,438.65889133303426,439.4176743747123,443.6702752079582,"['lshift', 'rshift']","[1.498667792067863, 2.4538795420667157]",065,001,2023-04-26_16h26.14.078,exp_g1,2022.2.5,None,
96.0,l2,f,en,na,../audio/096.wav,,l2_f_en_na_096,,,,,,,../image/america.png,../image/spain.png,,,2,america,spain,,,,None,,,,,,,,,,,,,,,,,,,,,0,28,28,0,,,,,,,,,,,,,,,,,,,,,443.6702752079582,443.90909158298746,443.9179639579961,444.6598275826002,448.93048383295536,['lshift'],[1.3526217921171337],065,001,2023-04-26_16h26.14.078,exp_g1,2022.2.5,None,
119.0,l2,f,se,na,../audio/119.wav,,l2_f_se_na_119,,,,,,,../image/america.png,../image/spain.png,,,2,america,spain,,,,1,,,,,,,,,,,,,,,,,,,,,0,29,29,23,,,,,,,,,,,,,,,,,,,,,448.93048383295536,449.1589480829425,449.17420795804355,449.9188224166321,454.1694931249367,"['rshift', 'lshift']","[1.4777789589716122, 2.8532596670556813]",065,001,2023-04-26_16h26.14.078,exp_g1,2022.2.5,None,
164.0,l2,t,es,f0c,../audio/164.wav,,l2_t_es_f0c_164,,,,,,,../image/america.png,../image/spain.png,,,2,america,spain,,,,1,,,,,,,,,,,,,,,,,,,,,0,30,30,48,,,,,,,,,,,,,,,,,,,,,454.1694931249367,454.4082817500457,454.4082817500457,455.1689225827033,459.42430254095234,"['lshift', 'rshift']","[1.967941208044067, 2.6350085410522297]",065,001,2023-04-26_16h26.14.078,exp_g1,2022.2.5,None,
105.0,l2,f,en,na,../audio/105.wav,,l2_f_en_na_105,,,,,,,../image/america.png,../image/spain.png,,,2,america,spain,,,,None,,,,,,,,,,,,,,,,,,,,,0,31,31,9,,,,,,,,,,,,,,,,,,,,,459.42430254095234,459.65891795803327,459.66806158295367,460.4190385416771,464.6697273750324,['lshift'],[1.3936521250288934],065,001,2023-04-26_16h26.14.078,exp_g1,2022.2.5,None,
28.0,l2,t,es,na,../audio/028.wav,,l2_t_es_na_028,,,,,,,../image/america.png,../image/spain.png,,,2,america,spain,,,,1,,,,,,,,,,,,,,,,,,,,,0,32,32,42,,,,,,,,,,,,,,,,,,,,,464.6697273750324,464.90881366597023,464.90881366597023,465.6688318326526,469.9191058749566,"['lshift', 'rshift']","[1.6363327910657972, 2.4273176250280812]",065,001,2023-04-26_16h26.14.078,exp_g1,2022.2.5,None,
107.0,l2,f,en,na,../audio/107.wav,,l2_f_en_na_107,,,,,,,../image/america.png,../image/spain.png,,,2,america,spain,,,,None,,,,,,,,,,,,,,,,,,,,,0,33,33,11,,,,,,,,,,,,,,,,,,,,,469.9191058749566,470.15779183304403,470.15779183304403,470.91872049967446,475.170048333006,['lshift'],[1.4665825000265613],065,001,2023-04-26_16h26.14.078,exp_g1,2022.2.5,None,
25.0,l2,t,es,na,../audio/025.wav,,l2_t_es_na_025,,,,,,,../image/america.png,../image/spain.png,,,2,america,spain,,,,1,,,,,,,,,,,,,,,,,,,,,0,34,34,39,,,,,,,,,,,,,,,,,,,,,475.170048333006,475.4089351249859,475.4175150829833,476.1673408327081,480.43044512497727,"['lshift', 'rshift']","[1.219341333140619, 2.1818235410610214]",065,001,2023-04-26_16h26.14.078,exp_g1,2022.2.5,None,
30.0,l2,t,es,na,../audio/030.wav,,l2_t_es_na_030,,,,,,,../image/america.png,../image/spain.png,,,2,america,spain,,,,1,,,,,,,,,,,,,,,,,,,,,0,35,35,44,,,,,,,,,,,,,,,,,,,,,480.43044512497727,480.6586834579939,480.6728668749565,481.41866624966883,485.6619054999901,"['lshift', 'rshift']","[1.2566600840073079, 2.505818459088914]",065,001,2023-04-26_16h26.14.078,exp_g1,2022.2.5,None,
128.0,l2,f,sp,na,../audio/128.wav,,l2_f_sp_na_128,,,,,,,../image/america.png,../image/spain.png,,,2,america,spain,,,,None,,,,,,,,,,,,,,,,,,,,,0,36,36,32,,,,,,,,,,,,,,,,,,,,,485.66684645798523,485.90845645801164,485.90845645801164,486.6686903326229,490.9192456660094,['rshift'],[1.7690372919896618],065,001,2023-04-26_16h26.14.078,exp_g1,2022.2.5,None,
125,l2,f,sp,na,../audio/125.wav,,l2_f_sp_na_125,,,,,,,../image/america.png,../image/spain.png,,,2,america,spain,,,,None,,,,,,,,,,,,,,,,,,,,,0,37,37,29,,,,,,,,,,,,,,,,,,,,,490.9192456660094,491.1582851250423,491.1582851250423,491.9186785416134,496.1697083329782,['rshift'],[1.6784736660774797],065,001,2023-04-26_16h26.14.078,exp_g1,2022.2.5,None,
168.0,l2,t,es,f0c,../audio/168.wav,,l2_t_es_f0c_168,,,,,,,../image/america.png,../image/spain.png,,,2,america,spain,,,,1,,,,,,,,,,,,,,,,,,,,,0,38,38,52,,,,,,,,,,,,,,,,,,,,,496.1697083329782,496.4085042909719,496.417840625043,497.16810595762604,501.41983570798766,"['lshift', 'rshift']","[1.8782845421228558, 2.189802542096004]",065,001,2023-04-26_16h26.14.078,exp_g1,2022.2.5,None,
170.0,l2,t,es,f0c,../audio/170.wav,,l2_t_es_f0c_170,,,,,,,../image/america.png,../image/spain.png,,,2,america,spain,,,,1,,,,,,,,,,,,,,,,,,,,,0,39,39,54,,,,,,,,,,,,,,,,,,,,,501.41983570798766,501.6593547910452,501.6669205829967,502.4091590826322,506.6797925409628,"['lshift', 'rshift']","[1.3720943329390138, 2.1486593750305474]",065,001,2023-04-26_16h26.14.078,exp_g1,2022.2.5,None,
113.0,l2,f,se,na,../audio/113.wav,,l2_f_se_na_113,,,,,,,../image/america.png,../image/spain.png,,,2,america,spain,,,,1,,,,,,,,,,,,,,,,,,,,,0,40,40,17,,,,,,,,,,,,,,,,,,,,,506.6797925409628,506.9098670829553,506.92358304094523,507.66866245767255,511.92904170800466,"['rshift', 'lshift']","[1.3155269999988377, 2.1915570410201326]",065,001,2023-04-26_16h26.14.078,exp_g1,2022.2.5,None,
106.0,l2,f,en,na,../audio/106.wav,,l2_f_en_na_106,,,,,,,../image/america.png,../image/spain.png,,,2,america,spain,,,,None,,,,,,,,,,,,,,,,,,,,,0,41,41,10,,,,,,,,,,,,,,,,,,,,,511.92904170800466,512.159116707975,512.1732112909667,512.9174935826488,517.1685067500221,['lshift'],[1.3110620840452611],065,001,2023-04-26_16h26.14.078,exp_g1,2022.2.5,None,
111.0,l2,f,se,na,../audio/111.wav,,l2_f_se_na_111,,,,,,,../image/america.png,../image/spain.png,,,2,america,spain,,,,1,,,,,,,,,,,,,,,,,,,,,0,42,42,15,,,,,,,,,,,,,,,,,,,,,517.1685067500221,517.4073949579615,517.4073949579615,518.167640041622,522.4201275829691,"['rshift', 'lshift']","[1.3621092500397936, 2.307242542039603]",065,001,2023-04-26_16h26.14.078,exp_g1,2022.2.5,None,
161.0,l2,t,es,f0c,../audio/161.wav,,l2_t_es_f0c_161,,,,,,,../image/america.png,../image/spain.png,,,2,america,spain,,,,1,,,,,,,,,,,,,,,,,,,,,0,43,43,45,,,,,,,,,,,,,,,,,,,,,522.4201275829691,522.6592717909953,522.6667602079688,523.4174909575997,527.6768228750443,"['lshift', 'rshift']","[1.4710103750694543, 2.1672326660482213]",065,001,2023-04-26_16h26.14.078,exp_g1,2022.2.5,None,
123.0,l2,f,sp,na,../audio/123.wav,,l2_f_sp_na_123,,,,,,,../image/america.png,../image/spain.png,,,2,america,spain,,,,None,,,,,,,,,,,,,,,,,,,,,0,44,44,27,,,,,,,,,,,,,,,,,,,,,527.6768228750443,527.9088302910095,527.9227349159773,528.6683723326462,532.923733875039,['rshift'],[1.550272750086151],065,001,2023-04-26_16h26.14.078,exp_g1,2022.2.5,None,
129.0,l2,f,sp,na,../audio/129.wav,,l2_f_sp_na_129,,,,,,,../image/america.png,../image/spain.png,,,2,america,spain,,,,None,,,,,,,,,,,,,,,,,,,,,0,45,45,33,,,,,,,,,,,,,,,,,,,,,532.923733875039,533.1584330409532,533.1673972499557,533.918195666691,538.1689097910421,['rshift'],[1.961165959131904],065,001,2023-04-26_16h26.14.078,exp_g1,2022.2.5,None,
103.0,l2,f,en,na,../audio/103.wav,,l2_f_en_na_103,,,,,,,../image/america.png,../image/spain.png,,,2,america,spain,,,,None,,,,,,,,,,,,,,,,,,,,,0,46,46,7,,,,,,,,,,,,,,,,,,,,,538.1689097910421,538.4083746660035,538.4083746660035,539.168215707705,543.4200954160187,['lshift'],[1.4788663750514388],065,001,2023-04-26_16h26.14.078,exp_g1,2022.2.5,None,
112.0,l2,f,se,na,../audio/112.wav,,l2_f_se_na_112,,,,,,,../image/america.png,../image/spain.png,,,2,america,spain,,,,1,,,,,,,,,,,,,,,,,,,,,0,47,47,16,,,,,,,,,,,,,,,,,,,,,543.4200954160187,543.6587797909742,543.6666842909763,544.4181086666106,548.6751732080011,"['rshift', 'lshift']","[1.4096666669938713, 2.4124411669326946]",065,001,2023-04-26_16h26.14.078,exp_g1,2022.2.5,None,
21.0,l2,t,es,na,../audio/021.wav,,l2_t_es_na_021,,,,,,,../image/america.png,../image/spain.png,,,2,america,spain,,,,1,,,,,,,,,,,,,,,,,,,,,0,48,48,35,,,,,,,,,,,,,,,,,,,,,548.6751732080011,548.9080440000398,548.9166807499714,549.6671362496602,553.9145491250092,"['lshift', 'rshift']","[1.4021329999668524, 2.3011028750333935]",065,001,2023-04-26_16h26.14.078,exp_g1,2022.2.5,None,
163.0,l2,t,es,f0c,../audio/163.wav,,l2_t_es_f0c_163,,,,,,,../image/america.png,../image/spain.png,,,2,america,spain,,,,1,,,,,,,,,,,,,,,,,,,,,0,49,49,47,,,,,,,,,,,,,,,,,,,,,553.9145491250092,554.1574606660288,554.1574606660288,554.918173166636,559.1681664999342,"['lshift', 'rshift']","[2.030646041035652, 3.094615082954988]",065,001,2023-04-26_16h26.14.078,exp_g1,2022.2.5,None,
23.0,l2,t,es,na,../audio/023.wav,,l2_t_es_na_023,,,,,,,../image/america.png,../image/spain.png,,,2,america,spain,,,,1,,,,,,,,,,,,,,,,,,,,,0,50,50,37,,,,,,,,,,,,,,,,,,,,,559.1681664999342,559.4071088329656,559.4071088329656,560.1666185416436,564.4176669999724,"['lshift', 'rshift']","[1.4335817500250414, 2.4953123750165105]",065,001,2023-04-26_16h26.14.078,exp_g1,2022.2.5,None,
26.0,l2,t,es,na,../audio/026.wav,,l2_t_es_na_026,,,,,,,../image/america.png,../image/spain.png,,,2,america,spain,,,,1,,,,,,,,,,,,,,,,,,,,,0,51,51,40,,,,,,,,,,,,,,,,,,,,,564.4176669999724,564.6562130829552,564.6665883329697,565.4167208326437,569.6676800829591,"['lshift', 'rshift']","[1.3035295420559123, 2.5152005000272766]",065,001,2023-04-26_16h26.14.078,exp_g1,2022.2.5,None,
100.0,l2,f,en,na,../audio/100.wav,,l2_f_en_na_100,,,,,,,../image/america.png,../image/spain.png,,,2,america,spain,,,,None,,,,,,,,,,,,,,,,,,,,,0,52,52,4,,,,,,,,,,,,,,,,,,,,,569.6676800829591,569.9084015829721,569.9084015829721,570.6680647916548,574.918189415941,['lshift'],[1.3598165420116857],065,001,2023-04-26_16h26.14.078,exp_g1,2022.2.5,None,
114.0,l2,f,se,na,../audio/114.wav,,l2_f_se_na_114,,,,,,,../image/america.png,../image/spain.png,,,2,america,spain,,,,1,,,,,,,,,,,,,,,,,,,,,0,53,53,18,,,,,,,,,,,,,,,,,,,,,574.918189415941,575.1574460830307,575.1574460830307,575.9175424996686,580.1705766660161,['rshift'],[1.4642822919413447],065,001,2023-04-26_16h26.14.078,exp_g1,2022.2.5,None,
102.0,l2,f,en,na,../audio/102.wav,,l2_f_en_na_102,,,,,,,../image/america.png,../image/spain.png,,,2,america,spain,,,,None,,,,,,,,,,,,,,,,,,,,,0,54,54,6,,,,,,,,,,,,,,,,,,,,,580.1705766660161,580.4076695829863,580.4180415830342,581.1674662916378,585.4012828749837,['lshift'],[1.6608756250934675],065,001,2023-04-26_16h26.14.078,exp_g1,2022.2.5,None,
