num,list,cond,lang,type,sound_dir,phr,sent_code,mat,mat_num,emb_num,emb,cut,mat_f0_c,left,right,correct_img,correct_key,exp_num,image,image_alt,left_img,right_img,image_dir,cs,exp1_retrial.thisRepN,exp1_retrial.thisTrialN,exp1_retrial.thisN,exp1_retrial.thisIndex,exp1_trial_loop.thisRepN,exp1_trial_loop.thisTrialN,exp1_trial_loop.thisN,exp1_trial_loop.thisIndex,exp1_loop.thisRepN,exp1_loop.thisTrialN,exp1_loop.thisN,exp1_loop.thisIndex,exp2_retrial.thisRepN,exp2_retrial.thisTrialN,exp2_retrial.thisN,exp2_retrial.thisIndex,exp2_trial_loop.thisRepN,exp2_trial_loop.thisTrialN,exp2_trial_loop.thisN,exp2_trial_loop.thisIndex,exp2_loop.thisRepN,exp2_loop.thisTrialN,exp2_loop.thisN,exp2_loop.thisIndex,exp1_trial_cross.started,exp1_trial_key.started,exp1_trial_cross.stopped,exp1_trial_sound.started,exp1_trial_key.keys,exp1_trial_key.rt,exp1_cross.started,exp1_key.started,exp1_key.keys,exp1_key.corr,exp1_key.rt,exp1_cross.stopped,exp1_sound.started,exp2_trial_cross.started,exp2_trial_key.started,exp2_trial_cross.stopped,exp2_trial_sound.started,exp2_trial_key.stopped,exp2_trial_key.keys,exp2_trial_key.rt,exp2_cross.started,exp2_key.started,exp2_cross.stopped,exp2_sound.started,exp2_key.stopped,exp2_key.keys,exp2_key.rt,participant,session,date,expName,psychopyVersion,frameRate,
tr1,lt,tr,en,na,../practice_trial/audio/tr1.wav,Where are your kids?,lt_tr_en_na_tr1,-,-,-,-,-,-,../image/kids.png,../image/plates.png,kids,lshift,,,,,,,,0,0,0,0,0,0,0,0,,,,,,,,,,,,,,,,,20.55368295800872,20.714098916039802,20.8023290829733,21.46676449961184,['lshift'],[1.739823209005408],,,,,,,,,,,,,,,,,,,,,,070,001,2023-05-05_16h30.18.907,exp_g1,2022.2.5,None,
tr2,lt,tr,en,na,../practice_trial/audio/tr2.wav,Who is buying my car?,lt_tr_en_na_tr2,-,-,-,-,-,-,../image/bag.png,../image/car.png,car,rshift,,,,,,,,0,0,0,0,0,1,1,1,,,,,,,,,,,,,,,,,22.49474904104136,22.704270208021626,22.733548040967435,23.464120541644903,['rshift'],[1.8846971669699997],,,,,,,,,,,,,,,,,,,,,,070,001,2023-05-05_16h30.18.907,exp_g1,2022.2.5,None,
tr3,lt,tr,sp,na,../practice_trial/audio/tr3.wav,¿Dónde está mi perro?,lt_tr_sp_na_tr3,-,-,-,-,-,-,../image/dog.png,../image/grandma.png,dog,lshift,,,,,,,,0,0,0,0,0,2,2,2,,,,,,,,,,,,,,,,,24.64065329101868,24.847884832997806,24.885257208021358,25.60260624968602,['lshift'],[1.9005558749195188],,,,,,,,,,,,,,,,,,,,,,070,001,2023-05-05_16h30.18.907,exp_g1,2022.2.5,None,
tr4,lt,tr,sp,na,../practice_trial/audio/tr4.wav,¿De quién es la bolsa?,lt_tr_sp_na_tr4,-,-,-,-,-,-,../image/shirt.png,../image/bag.png,bag,rshift,,,,,,,,0,0,0,0,0,3,3,3,,,,,,,,,,,,,,,,,26.79047529096715,27.004485166049562,27.034005790948868,27.764331416638257,['rshift'],[2.2180397500051185],,,,,,,,,,,,,,,,,,,,,,070,001,2023-05-05_16h30.18.907,exp_g1,2022.2.5,None,
tr5,lt,tr,se,na,../practice_trial/audio/tr5.wav,¿Dónde encontraste sus donuts?,lt_tr_se_na_tr5,-,-,-,-,-,-,../image/donut.png,../image/cups.png,donut,lshift,,,,,,,,0,0,0,0,0,4,4,4,,,,,,,,,,,,,,,,,29.27713824994862,29.480440665967762,29.52042508299928,30.2382066666071,['lshift'],[2.7091047499561682],,,,,,,,,,,,,,,,,,,,,,070,001,2023-05-05_16h30.18.907,exp_g1,2022.2.5,None,
tr6,lt,tr,se,na,../practice_trial/audio/tr6.wav,¿Cuándo compraste tu sweater?,lt_tr_se_na_tr6,-,-,-,-,-,-,../image/chair.png,../image/sweater.png,sweater,rshift,,,,,,,,0,0,0,0,0,5,5,5,,,,,,,,,,,,,,,,,32.238545374944806,32.447498374967836,32.480900540947914,33.20406866661894,['rshift'],[2.3115482500288635],,,,,,,,,,,,,,,,,,,,,,070,001,2023-05-05_16h30.18.907,exp_g1,2022.2.5,None,
tr7,lt,tr,es,na,../practice_trial/audio/tr7.wav,Why do you have my camisa?,lt_tr_es_na_tr7,-,-,-,-,-,-,../image/shirt.png,../image/wallet.png,shirt,lshift,,,,,,,,0,0,0,0,0,6,6,6,,,,,,,,,,,,,,,,,34.80609450000338,35.01376737502869,35.05447983299382,35.769798457684615,['lshift'],[2.7675162920495495],,,,,,,,,,,,,,,,,,,,,,070,001,2023-05-05_16h30.18.907,exp_g1,2022.2.5,None,
tr8,lt,tr,es,na,../practice_trial/audio/tr8.wav,Where did you find his chanclas?,lt_tr_es_na_tr8,-,-,-,-,-,-,../image/key.png,../image/flipflops.png,flipflops,rshift,,,,,,,,0,0,0,0,0,7,7,7,,,,,,,,,,,,,,,,,37.82514924998395,38.031202082987875,38.07052425004076,38.78720199963233,['rshift'],[2.0017168329795823],,,,,,,,,,,,,,,,,,,,,,070,001,2023-05-05_16h30.18.907,exp_g1,2022.2.5,None,
,,,,,,,,,,,,,,,,,,,,,,,,,0,0,0,0,,,,,,,,,,,,,,,,,,,,,,,,,,,,,,,,,,,,,,,,,,,,,,,,070,001,2023-05-05_16h30.18.907,exp_g1,2022.2.5,None,
75.0,l1,f,en,na,../audio/075.wav,,l1_f_en_na_075,,,,,,,../image/dog.png,../image/fish.png,fish,rshift,1,fish,dog,dog,fish,None,,,,,,,,,,0,0,0,14,,,,,,,,,,,,,,,,,,,49.323514458024874,49.39654316601809,lshift,0,-0.5918743329821154,,,,,,,,,,,,,,,,,070,001,2023-05-05_16h30.18.907,exp_g1,2022.2.5,None,
12.0,l1,t,es,na,../audio/012.wav,,l1_t_es_na_012,,,,,,,../image/newspaper.png,../image/book.png,book,rshift,1,book,newspaper,newspaper,book,None,,,,,,,,,,0,1,1,36,,,,,,,,,,,,,,,,,,,49.42492437502369,49.63571904099081,rshift,1,2.463476749951951,49.66904729104135,50.39688379160749,,,,,,,,,,,,,,,070,001,2023-05-05_16h30.18.907,exp_g1,2022.2.5,None,
72.0,l1,f,en,na,../audio/072.wav,,l1_f_en_na_072,,,,,,,../image/dog.png,../image/fish.png,dog,lshift,1,dog,fish,dog,fish,None,,,,,,,,,,0,2,2,11,,,,,,,,,,,,,,,,,,,52.14515279093757,52.354208291042596,lshift,1,1.8771695418981835,52.387025416013785,53.104374791674005,,,,,,,,,,,,,,,070,001,2023-05-05_16h30.18.907,exp_g1,2022.2.5,None,
82.0,l1,f,se,na,../audio/082.wav,,l1_f_se_na_082,,,,,,,../image/mickeymouse.png,../image/spongebob.png,mickeymouse,lshift,1,mickeymouse,spongebob,mickeymouse,spongebob,None,,,,,,,,,,0,3,3,21,,,,,,,,,,,,,,,,,,,54.279639124986716,54.48730799998157,lshift,1,2.2275425419211388,54.520540875033475,55.24737179169121,,,,,,,,,,,,,,,070,001,2023-05-05_16h30.18.907,exp_g1,2022.2.5,None,
86.0,l1,f,sp,na,../audio/086.wav,,l1_f_sp_na_086,,,,,,,../image/plates.png,../image/glasses.png,plates,lshift,1,plates,glasses,plates,glasses,None,,,,,,,,,,0,4,4,25,,,,,,,,,,,,,,,,,,,56.76073716604151,56.97089520795271,lshift,1,1.9003512508934364,57.003614375018515,57.721161582685696,,,,,,,,,,,,,,,070,001,2023-05-05_16h30.18.907,exp_g1,2022.2.5,None,
139.0,l1,t,es,f0u,../audio/139.wav,,l1_t_es_f0u_139,,,,,,,../image/restaurant.png,../image/hotel.png,restaurant,lshift,1,restaurant,hotel,restaurant,hotel,None,,,,,,,,,,0,5,5,53,,,,,,,,,,,,,,,,,,,58.92958849994466,59.120539790950716,lshift,1,2.357301416923292,59.170108582940884,59.88067624968632,,,,,,,,,,,,,,,070,001,2023-05-05_16h30.18.907,exp_g1,2022.2.5,None,
69.0,l1,f,en,na,../audio/069.wav,,l1_f_en_na_069,,,,,,,../image/bag.png,../image/shirt.png,shirt,rshift,1,shirt,bag,bag,shirt,None,,,,,,,,,,0,6,6,8,,,,,,,,,,,,,,,,,,,61.521484249969944,61.73022366594523,lshift,0,1.9401647499762475,61.768021957948804,62.48705087468649,,,,,,,,,,,,,,,070,001,2023-05-05_16h30.18.907,exp_g1,2022.2.5,None,
11.0,l1,t,es,na,../audio/011.wav,,l1_t_es_na_011,,,,,,,../image/armchair.png,../image/bed.png,armchair,lshift,1,armchair,bed,armchair,bed,None,,,,,,,,,,0,7,7,35,,,,,,,,,,,,,,,,,,,63.71794787503313,63.92070050002076,lshift,1,2.593435708899051,63.96412875002716,64.680210082621,,,,,,,,,,,,,,,070,001,2023-05-05_16h30.18.907,exp_g1,2022.2.5,None,
133.0,l1,t,es,f0u,../audio/133.wav,,l1_t_es_f0u_133,,,,,,,../image/cellphone.png,../image/book.png,cellphone,lshift,1,cellphone,book,cellphone,book,None,,,,,,,,,,0,8,8,47,,,,,,,,,,,,,,,,,,,66.56564941594843,66.7703862079652,rshift,0,2.7657154999906197,66.81364595796913,67.53024537471744,,,,,,,,,,,,,,,070,001,2023-05-05_16h30.18.907,exp_g1,2022.2.5,None,
95.0,l1,f,sp,na,../audio/095.wav,,l1_f_sp_na_095,,,,,,,../image/socks.png,../image/key.png,key,rshift,1,key,socks,socks,key,None,,,,,,,,,,0,9,9,34,,,,,,,,,,,,,,,,,,,69.58778512501158,69.79761229094584,rshift,1,2.800537124974653,69.83032833295874,70.55367541668626,,,,,,,,,,,,,,,070,001,2023-05-05_16h30.18.907,exp_g1,2022.2.5,None,
140.0,l1,t,es,f0u,../audio/140.wav,,l1_t_es_f0u_140,,,,,,,../image/ring.png,../image/bracelet.png,bracelet,rshift,1,bracelet,ring,ring,bracelet,None,,,,,,,,,,0,10,10,54,,,,,,,,,,,,,,,,,,,72.64476770802867,72.85252083302476,rshift,1,3.3619938760530204,72.88708879100159,73.60431791661928,,,,,,,,,,,,,,,070,001,2023-05-05_16h30.18.907,exp_g1,2022.2.5,None,
13.0,l1,t,es,na,../audio/013.wav,,l1_t_es_na_013,,,,,,,../image/beer.png,../image/wine.png,beer,lshift,1,beer,wine,beer,wine,None,,,,,,,,,,0,11,11,37,,,,,,,,,,,,,,,,,,,76.26154308300465,76.47060975001659,lshift,1,2.779935291968286,76.50334675004706,77.23067699961054,,,,,,,,,,,,,,,070,001,2023-05-05_16h30.18.907,exp_g1,2022.2.5,None,
94.0,l1,f,sp,na,../audio/094.wav,,l1_f_sp_na_094,,,,,,,../image/beer.png,../image/horchata.png,beer,lshift,1,beer,horchata,beer,horchata,None,,,,,,,,,,0,12,12,33,,,,,,,,,,,,,,,,,,,79.29749483300839,79.50414049997926,lshift,1,3.0149220830062404,79.53709524997976,80.26354266662771,,,,,,,,,,,,,,,070,001,2023-05-05_16h30.18.907,exp_g1,2022.2.5,None,
80.0,l1,f,se,na,../audio/080.wav,,l1_f_se_na_080,,,,,,,../image/mouse.png,../image/rat.png,mouse,lshift,1,mouse,rat,mouse,rat,None,,,,,,,,,,0,13,13,19,,,,,,,,,,,,,,,,,,,82.57028087496292,82.78084849996958,rshift,0,2.642374709015712,82.81411295803264,83.53660787461946,,,,,,,,,,,,,,,070,001,2023-05-05_16h30.18.907,exp_g1,2022.2.5,None,
87.0,l1,f,sp,na,../audio/087.wav,,l1_f_sp_na_087,,,,,,,../image/desk.png,../image/bed.png,bed,rshift,1,bed,desk,desk,bed,None,,,,,,,,,,0,14,14,26,,,,,,,,,,,,,,,,,,,85.47811862500384,85.68065920798108,rshift,1,3.250724791898392,85.72026837500744,86.43659804162259,,,,,,,,,,,,,,,070,001,2023-05-05_16h30.18.907,exp_g1,2022.2.5,None,
74.0,l1,f,en,na,../audio/074.wav,,l1_f_en_na_074,,,,,,,../image/boy.png,../image/woman.png,boy,lshift,1,boy,woman,boy,woman,None,,,,,,,,,,0,15,15,13,,,,,,,,,,,,,,,,,,,88.98209079098888,89.1872823749436,lshift,1,1.8901257499819621,89.23049141594674,89.94678895763742,,,,,,,,,,,,,,,070,001,2023-05-05_16h30.18.907,exp_g1,2022.2.5,None,
70.0,l1,f,en,na,../audio/070.wav,,l1_f_en_na_070,,,,,,,../image/computer.png,../image/bed.png,computer,lshift,1,computer,bed,computer,bed,None,,,,,,,,,,0,16,16,9,,,,,,,,,,,,,,,,,,,91.12304841598962,91.33038983296137,lshift,1,2.44497016700916,91.36881062504835,92.08657841670016,,,,,,,,,,,,,,,070,001,2023-05-05_16h30.18.907,exp_g1,2022.2.5,None,
76.0,l1,f,se,na,../audio/076.wav,,l1_f_se_na_076,,,,,,,../image/hotdog.png,../image/burger.png,hotdog,lshift,1,hotdog,burger,hotdog,burger,None,,,,,,,,,,0,17,17,15,,,,,,,,,,,,,,,,,,,93.83018345804885,94.0307153329486,lshift,1,2.0182335840072483,94.07001999998465,94.78701070760532,,,,,,,,,,,,,,,070,001,2023-05-05_16h30.18.907,exp_g1,2022.2.5,None,
84.0,l1,f,se,na,../audio/084.wav,,l1_f_se_na_084,,,,,,,../image/penthouse.png,../image/rocket.png,penthouse,lshift,1,penthouse,rocket,penthouse,rocket,None,,,,,,,,,,0,18,18,23,,,,,,,,,,,,,,,,,,,96.10069729096722,96.30345595802646,lshift,1,2.4717211249517277,96.34678329096641,97.06339987466733,,,,,,,,,,,,,,,070,001,2023-05-05_16h30.18.907,exp_g1,2022.2.5,None,
132.0,l1,t,es,f0u,../audio/132.wav,,l1_t_es_f0u_132,,,,,,,../image/car.png,../image/grandma.png,grandma,rshift,1,grandma,car,car,grandma,None,,,,,,,,,,0,19,19,46,,,,,,,,,,,,,,,,,,,98.82016308302991,99.02128737501334,rshift,1,2.336832624976523,99.06404408300295,99.78532304166971,,,,,,,,,,,,,,,070,001,2023-05-05_16h30.18.907,exp_g1,2022.2.5,None,
63.0,l1,f,en,na,../audio/063.wav,,l1_f_en_na_063,,,,,,,../image/woman.png,../image/man.png,man,rshift,1,man,woman,woman,man,None,,,,,,,,,,0,20,20,2,,,,,,,,,,,,,,,,,,,101.39187233301345,101.61271141597535,rshift,1,1.9763027919689193,101.63492095796391,102.36786899966343,,,,,,,,,,,,,,,070,001,2023-05-05_16h30.18.907,exp_g1,2022.2.5,None,
88.0,l1,f,sp,na,../audio/088.wav,,l1_f_sp_na_088,,,,,,,../image/book.png,../image/cellphone.png,book,lshift,1,book,cellphone,book,cellphone,None,,,,,,,,,,0,21,21,27,,,,,,,,,,,,,,,,,,,103.62389208294917,103.84585041599348,lshift,1,1.9870475840289146,103.86670687503647,104.60222108260884,,,,,,,,,,,,,,,070,001,2023-05-05_16h30.18.907,exp_g1,2022.2.5,None,
67.0,l1,f,en,na,../audio/067.wav,,l1_f_en_na_067,,,,,,,../image/beer.png,../image/glasses.png,glasses,rshift,1,glasses,beer,beer,glasses,None,,,,,,,,,,0,22,22,6,,,,,,,,,,,,,,,,,,,105.87502195802517,106.08783620793838,rshift,1,2.260177333955653,106.11893895803951,106.84722166665985,,,,,,,,,,,,,,,070,001,2023-05-05_16h30.18.907,exp_g1,2022.2.5,None,
65.0,l1,f,en,na,../audio/065.wav,,l1_f_en_na_065,,,,,,,../image/computer.png,../image/book.png,book,rshift,1,book,computer,computer,book,None,,,,,,,,,,0,23,23,4,,,,,,,,,,,,,,,,,,,108.39560787496157,108.60423795797396,rshift,1,1.7597536250250414,108.63532875000965,109.36389245762645,,,,,,,,,,,,,,,070,001,2023-05-05_16h30.18.907,exp_g1,2022.2.5,None,
16.0,l1,t,es,na,../audio/016.wav,,l1_t_es_na_016,,,,,,,../image/flipflops.png,../image/bag.png,bag,rshift,1,bag,flipflops,flipflops,bag,None,,,,,,,,,,0,24,24,40,,,,,,,,,,,,,,,,,,,110.40454704104923,110.6133444160223,rshift,1,2.9631327498937026,110.64718783297576,111.37067441671776,,,,,,,,,,,,,,,070,001,2023-05-05_16h30.18.907,exp_g1,2022.2.5,None,
19.0,l1,t,es,na,../audio/019.wav,,l1_t_es_na_019,,,,,,,../image/boy.png,../image/dog.png,boy,lshift,1,boy,dog,boy,dog,None,,,,,,,,,,0,25,25,43,,,,,,,,,,,,,,,,,,,113.62221454095561,113.82018837495707,lshift,1,2.8205782920122147,113.86939808295574,114.58041766664634,,,,,,,,,,,,,,,070,001,2023-05-05_16h30.18.907,exp_g1,2022.2.5,None,
17.0,l1,t,es,na,../audio/017.wav,,l1_t_es_na_017,,,,,,,../image/jug.png,../image/cat.png,jug,lshift,1,jug,cat,jug,cat,None,,,,,,,,,,0,26,26,41,,,,,,,,,,,,,,,,,,,116.68863687501289,116.88668762496673,lshift,1,2.770569624961354,116.93655937502626,117.64702387462991,,,,,,,,,,,,,,,070,001,2023-05-05_16h30.18.907,exp_g1,2022.2.5,None,
93.0,l1,f,sp,na,../audio/093.wav,,l1_f_sp_na_093,,,,,,,../image/boy.png,../image/book.png,book,rshift,1,book,boy,boy,book,None,,,,,,,,,,0,27,27,32,,,,,,,,,,,,,,,,,,,119.70844974997453,119.91403095796704,rshift,1,1.7508569998899475,119.95348691602703,120.66987937462206,,,,,,,,,,,,,,,070,001,2023-05-05_16h30.18.907,exp_g1,2022.2.5,None,
15.0,l1,t,es,na,../audio/015.wav,,l1_t_es_na_015,,,,,,,../image/glasses.png,../image/jacket.png,glasses,lshift,1,glasses,jacket,glasses,jacket,None,,,,,,,,,,0,28,28,39,,,,,,,,,,,,,,,,,,,121.71369945805054,121.92037679103669,lshift,1,2.1823877500137314,121.95256074995268,122.67990904167915,,,,,,,,,,,,,,,070,001,2023-05-05_16h30.18.907,exp_g1,2022.2.5,None,
68.0,l1,f,en,na,../audio/068.wav,,l1_f_en_na_068,,,,,,,../image/socks.png,../image/book.png,socks,lshift,1,socks,book,socks,book,None,,,,,,,,,,0,29,29,7,,,,,,,,,,,,,,,,,,,124.14142724999692,124.35351516597439,lshift,1,3.0849149168934673,124.38643670803867,125.1131989577009,,,,,,,,,,,,,,,070,001,2023-05-05_16h30.18.907,exp_g1,2022.2.5,None,
137.0,l1,t,es,f0u,../audio/137.wav,,l1_t_es_f0u_137,,,,,,,../image/jacket.png,../image/shirt.png,jacket,lshift,1,jacket,shirt,jacket,shirt,None,,,,,,,,,,0,30,30,51,,,,,,,,,,,,,,,,,,,127.48933941603173,127.69691316597164,lshift,1,2.588040457922034,127.73580999998376,128.4531490826669,,,,,,,,,,,,,,,070,001,2023-05-05_16h30.18.907,exp_g1,2022.2.5,None,
83.0,l1,f,se,na,../audio/083.wav,,l1_f_se_na_083,,,,,,,../image/donut.png,../image/burger.png,burger,rshift,1,burger,donut,donut,burger,None,,,,,,,,,,0,31,31,22,,,,,,,,,,,,,,,,,,,130.33584691595752,130.53669199999422,rshift,1,2.0657656668918207,130.5796607909724,131.29696483264368,,,,,,,,,,,,,,,070,001,2023-05-05_16h30.18.907,exp_g1,2022.2.5,None,
138.0,l1,t,es,f0u,../audio/138.wav,,l1_t_es_f0u_138,,,,,,,../image/pants.png,../image/shirt.png,shirt,rshift,1,shirt,pants,pants,shirt,None,,,,,,,,,,0,32,32,52,,,,,,,,,,,,,,,,,,,132.6465237500379,132.8528604999883,rshift,1,2.4394374589901417,132.88536433305126,133.6133486246147,,,,,,,,,,,,,,,070,001,2023-05-05_16h30.18.907,exp_g1,2022.2.5,None,
131.0,l1,t,es,f0u,../audio/131.wav,,l1_t_es_f0u_131,,,,,,,../image/cat.png,../image/flower.png,cat,lshift,1,cat,flower,cat,flower,None,,,,,,,,,,0,33,33,45,,,,,,,,,,,,,,,,,,,135.3433775829617,135.54695133294445,lshift,1,2.0287504999432713,135.58629008301068,136.3022668326196,,,,,,,,,,,,,,,070,001,2023-05-05_16h30.18.907,exp_g1,2022.2.5,None,
134.0,l1,t,es,f0u,../audio/134.wav,,l1_t_es_f0u_134,,,,,,,../image/basket.png,../image/truck.png,truck,rshift,1,truck,basket,basket,truck,None,,,,,,,,,,0,34,34,48,,,,,,,,,,,,,,,,,,,137.63072437501978,137.83040937501937,rshift,1,2.4671189580112696,137.8700381249655,138.5868699576861,,,,,,,,,,,,,,,070,001,2023-05-05_16h30.18.907,exp_g1,2022.2.5,None,
77.0,l1,f,se,na,../audio/077.wav,,l1_f_se_na_077,,,,,,,../image/mashedpotatoes.png,../image/donut.png,donut,rshift,1,donut,mashedpotatoes,mashedpotatoes,donut,None,,,,,,,,,,0,35,35,16,,,,,,,,,,,,,,,,,,,140.34833275002893,140.55336554103997,rshift,1,2.039406916941516,140.59654795797542,141.31340091670089,,,,,,,,,,,,,,,070,001,2023-05-05_16h30.18.907,exp_g1,2022.2.5,None,
61.0,l1,f,en,na,../audio/061.wav,,l1_f_en_na_061,,,,,,,../image/cat.png,../image/dog.png,dog,rshift,1,dog,cat,cat,dog,../image/,,,,,,,,,,0,36,36,0,,,,,,,,,,,,,,,,,,,142.64032687502913,142.846381249954,rshift,1,1.8391880419803783,142.88673087500501,143.60291654168785,,,,,,,,,,,,,,,070,001,2023-05-05_16h30.18.907,exp_g1,2022.2.5,None,
135.0,l1,t,es,f0u,../audio/135.wav,,l1_t_es_f0u_135,,,,,,,../image/flipflops.png,../image/flower.png,flipflops,lshift,1,flipflops,flower,flipflops,flower,None,,,,,,,,,,0,37,37,49,,,,,,,,,,,,,,,,,,,144.73142704099882,144.93685533304233,lshift,1,2.251981374924071,144.97986616601702,145.69646570767898,,,,,,,,,,,,,,,070,001,2023-05-05_16h30.18.907,exp_g1,2022.2.5,None,
71.0,l1,f,en,na,../audio/071.wav,,l1_f_en_na_071,,,,,,,../image/wallet.png,../image/plane.png,plane,rshift,1,plane,wallet,wallet,plane,None,,,,,,,,,,0,38,38,10,,,,,,,,,,,,,,,,,,,147.23943266598508,147.44639349996578,rshift,1,2.601546374964528,147.48381233296823,148.2033205826922,,,,,,,,,,,,,,,070,001,2023-05-05_16h30.18.907,exp_g1,2022.2.5,None,
90.0,l1,f,sp,na,../audio/090.wav,,l1_f_sp_na_090,,,,,,,../image/bag.png,../image/bottle.png,bag,lshift,1,bag,bottle,bag,bottle,None,,,,,,,,,,0,39,39,29,,,,,,,,,,,,,,,,,,,150.0962661249796,150.30388141598087,lshift,1,2.8428379589458928,150.33456929097883,151.06300012470845,,,,,,,,,,,,,,,070,001,2023-05-05_16h30.18.907,exp_g1,2022.2.5,None,
20.0,l1,t,es,na,../audio/020.wav,,l1_t_es_na_020,,,,,,,../image/cellphone.png,../image/backpack.png,backpack,rshift,1,backpack,cellphone,cellphone,backpack,None,,,,,,,,,,0,40,40,44,,,,,,,,,,,,,,,,,,,153.20130025001708,153.40326362499036,rshift,1,2.572012582910247,153.44630858302116,154.16365433269337,,,,,,,,,,,,,,,070,001,2023-05-05_16h30.18.907,exp_g1,2022.2.5,None,
79.0,l1,f,se,na,../audio/079.wav,,l1_f_se_na_079,,,,,,,../image/sweatpants.png,../image/jeans.png,jeans,rshift,1,jeans,sweatpants,sweatpants,jeans,None,,,,,,,,,,0,41,41,18,,,,,,,,,,,,,,,,,,,156.02200887503568,156.23015983297955,rshift,1,3.1077326249796897,156.26942549995147,156.98570362461422,,,,,,,,,,,,,,,070,001,2023-05-05_16h30.18.907,exp_g1,2022.2.5,None,
81.0,l1,f,se,na,../audio/081.wav,,l1_f_se_na_081,,,,,,,../image/boxers.png,../image/sweatpants.png,sweatpants,rshift,1,sweatpants,boxers,boxers,sweatpants,None,,,,,,,,,,0,42,42,20,,,,,,,,,,,,,,,,,,,159.390942582977,159.59644166601356,rshift,1,2.6213870419887826,159.63566862500738,160.35373937461216,,,,,,,,,,,,,,,070,001,2023-05-05_16h30.18.907,exp_g1,2022.2.5,None,
85.0,l1,f,se,na,../audio/085.wav,,l1_f_se_na_085,,,,,,,../image/loafers.png,../image/sneakers.png,sneakers,rshift,1,sneakers,loafers,loafers,sneakers,None,,,,,,,,,,0,43,43,24,,,,,,,,,,,,,,,,,,,162.26667249994352,162.46968241594732,rshift,1,3.054087875992991,162.51335899997503,163.22864795761805,,,,,,,,,,,,,,,070,001,2023-05-05_16h30.18.907,exp_g1,2022.2.5,None,
136.0,l1,t,es,f0u,../audio/136.wav,,l1_t_es_f0u_136,,,,,,,../image/city.png,../image/village.png,village,rshift,1,village,city,city,village,None,,,,,,,,,,0,44,44,50,,,,,,,,,,,,,,,,,,,165.57792508299462,165.7799309999682,rshift,1,3.0212267498718575,165.81738716596738,166.5359372916321,,,,,,,,,,,,,,,070,001,2023-05-05_16h30.18.907,exp_g1,2022.2.5,None,
78.0,l1,f,se,na,../audio/078.wav,,l1_f_se_na_078,,,,,,,../image/airpods.png,../image/joycons.png,airpods,lshift,1,airpods,joycons,airpods,joycons,None,,,,,,,,,,0,45,45,17,,,,,,,,,,,,,,,,,,,168.84214166598395,169.05117154098116,lshift,1,2.1299040419980884,169.0830385000445,169.8128201246184,,,,,,,,,,,,,,,070,001,2023-05-05_16h30.18.907,exp_g1,2022.2.5,None,
92.0,l1,f,sp,na,../audio/092.wav,,l1_f_sp_na_092,,,,,,,../image/armchair.png,../image/dog.png,armchair,lshift,1,armchair,dog,armchair,dog,None,,,,,,,,,,0,46,46,31,,,,,,,,,,,,,,,,,,,171.23571666597854,171.42995591601357,lshift,1,1.9358909579459578,171.47999124997295,172.18594079168204,,,,,,,,,,,,,,,070,001,2023-05-05_16h30.18.907,exp_g1,2022.2.5,None,
18.0,l1,t,es,na,../audio/018.wav,,l1_t_es_na_018,,,,,,,../image/cups.png,../image/napkins.png,napkins,rshift,1,napkins,cups,cups,napkins,None,,,,,,,,,,0,47,47,42,,,,,,,,,,,,,,,,,,,173.4147693749983,173.61989887501113,rshift,1,2.894906708970666,173.66312337503769,174.37999841670197,,,,,,,,,,,,,,,070,001,2023-05-05_16h30.18.907,exp_g1,2022.2.5,None,
62.0,l1,f,en,na,../audio/062.wav,,l1_f_en_na_062,,,,,,,../image/shoe.png,../image/ring.png,shoe,lshift,1,shoe,ring,shoe,ring,None,,,,,,,,,,0,48,48,1,,,,,,,,,,,,,,,,,,,176.56252020795364,176.769710249966,lshift,1,2.0209874998545274,176.80293845804408,177.52951095771667,,,,,,,,,,,,,,,070,001,2023-05-05_16h30.18.907,exp_g1,2022.2.5,None,
14.0,l1,t,es,na,../audio/014.wav,,l1_t_es_na_014,,,,,,,../image/book.png,../image/key.png,key,rshift,1,key,book,book,key,None,,,,,,,,,,0,49,49,38,,,,,,,,,,,,,,,,,,,178.83988141594455,179.04613708297256,rshift,1,2.2107942089205608,179.08560079103336,179.80287824961513,,,,,,,,,,,,,,,070,001,2023-05-05_16h30.18.907,exp_g1,2022.2.5,None,
66.0,l1,f,en,na,../audio/066.wav,,l1_f_en_na_066,,,,,,,../image/bag.png,../image/scarf.png,bag,lshift,1,bag,scarf,bag,scarf,None,,,,,,,,,,0,50,50,5,,,,,,,,,,,,,,,,,,,181.3068102080142,181.51278750004712,lshift,1,2.1929402919486165,181.5527032079408,182.26960820769116,,,,,,,,,,,,,,,070,001,2023-05-05_16h30.18.907,exp_g1,2022.2.5,None,
91.0,l1,f,sp,na,../audio/091.wav,,l1_f_sp_na_091,,,,,,,../image/backpack.png,../image/bracelet.png,bracelet,rshift,1,bracelet,backpack,backpack,bracelet,None,,,,,,,,,,0,51,51,30,,,,,,,,,,,,,,,,,,,183.7608585410053,183.9631953330245,lshift,0,1.839444209006615,184.0028839999577,184.71886183269478,,,,,,,,,,,,,,,070,001,2023-05-05_16h30.18.907,exp_g1,2022.2.5,None,
73.0,l1,f,en,na,../audio/073.wav,,l1_f_en_na_073,,,,,,,../image/socks.png,../image/tshirt.png,tshirt,rshift,1,tshirt,socks,socks,tshirt,None,,,,,,,,,,0,52,52,12,,,,,,,,,,,,,,,,,,,185.84650629095268,186.05280583293643,rshift,1,2.4789358749985695,186.08376712503377,186.8128839577005,,,,,,,,,,,,,,,070,001,2023-05-05_16h30.18.907,exp_g1,2022.2.5,None,
89.0,l1,f,sp,na,../audio/089.wav,,l1_f_sp_na_089,,,,,,,../image/bed.png,../image/wallet.png,wallet,rshift,1,wallet,bed,bed,wallet,None,,,,,,,,,,0,53,53,28,,,,,,,,,,,,,,,,,,,188.58526387496386,188.78601779101882,rshift,1,2.311082916916348,188.82990604103543,189.54665291664813,,,,,,,,,,,,,,,070,001,2023-05-05_16h30.18.907,exp_g1,2022.2.5,None,
64.0,l1,f,en,na,../audio/064.wav,,l1_f_en_na_064,,,,,,,../image/wallet.png,../image/key.png,wallet,lshift,1,wallet,key,wallet,key,None,,,,,,,,,,0,54,54,3,,,,,,,,,,,,,,,,,,,191.14307687501423,191.34649187501054,lshift,1,1.8108971670735627,191.38628279103432,192.1028910827047,,,,,,,,,,,,,,,070,001,2023-05-05_16h30.18.907,exp_g1,2022.2.5,None,
tr1,lt,tr,en,na,../practice_trial/audio/tr1.wav,Where are your kids?,lt_tr_en_na_tr1,-,-,-,-,-,-,../image/america.png,../image/spain.png,,,,,,,,,,,,,,,,,,,,,,0,0,0,0,0,0,0,0,,,,,,,,,,,,,,,,,,203.68829333304893,203.88569487503264,203.93624620803166,204.63623362471506,208.90475533297285,"['lshift', 'lshift']","[1.3159919169265777, 3.607272333931178]",,,,,,,,070,001,2023-05-05_16h30.18.907,exp_g1,2022.2.5,None,
tr2,lt,tr,en,na,../practice_trial/audio/tr2.wav,Who is buying my car?,lt_tr_en_na_tr2,-,-,-,-,-,-,../image/america.png,../image/spain.png,,,,,,,,,,,,,,,,,,,,,,0,0,0,0,0,1,1,1,,,,,,,,,,,,,,,,,,208.90475533297285,209.1290990409907,209.1520347079495,209.88642637461115,214.1472048329888,['lshift'],[2.547026750049554],,,,,,,,070,001,2023-05-05_16h30.18.907,exp_g1,2022.2.5,None,
tr3,lt,tr,sp,na,../practice_trial/audio/tr3.wav,¿Dónde está mi perro?,lt_tr_sp_na_tr3,-,-,-,-,-,-,../image/america.png,../image/spain.png,,,,,,,,,,,,,,,,,,,,,,0,0,0,0,0,2,2,2,,,,,,,,,,,,,,,,,,214.1472048329888,214.37961654097307,214.38575662497897,215.13587133266654,219.39626741595566,['rshift'],[1.5591399170225486],,,,,,,,070,001,2023-05-05_16h30.18.907,exp_g1,2022.2.5,None,
tr4,lt,tr,sp,na,../practice_trial/audio/tr4.wav,¿De quién es la bolsa?,lt_tr_sp_na_tr4,-,-,-,-,-,-,../image/america.png,../image/spain.png,,,,,,,,,,,,,,,,,,,,,,0,0,0,0,0,3,3,3,,,,,,,,,,,,,,,,,,219.39626741595566,219.6296480409801,219.63623666600324,220.3846893326302,224.64340095804073,['rshift'],[1.7293337510200217],,,,,,,,070,001,2023-05-05_16h30.18.907,exp_g1,2022.2.5,None,
tr5,lt,tr,se,na,../practice_trial/audio/tr5.wav,¿Dónde encontraste sus donuts?,lt_tr_se_na_tr5,-,-,-,-,-,-,../image/america.png,../image/spain.png,,,,,,,,,,,,,,,,,,,,,,0,0,0,0,0,4,4,4,,,,,,,,,,,,,,,,,,224.64340095804073,224.88345162500627,224.88345162500627,225.63598637463681,229.9065915000392,['rshift'],[2.3692921668989584],,,,,,,,070,001,2023-05-05_16h30.18.907,exp_g1,2022.2.5,None,
tr6,lt,tr,se,na,../practice_trial/audio/tr6.wav,¿Cuándo compraste tu sweater?,lt_tr_se_na_tr6,-,-,-,-,-,-,../image/america.png,../image/spain.png,,,,,,,,,,,,,,,,,,,,,,0,0,0,0,0,5,5,5,,,,,,,,,,,,,,,,,,229.9065915000392,230.1286390000023,230.15196725004353,230.88616437471163,235.13384045800194,['rshift'],[1.5215568749699742],,,,,,,,070,001,2023-05-05_16h30.18.907,exp_g1,2022.2.5,None,
tr7,lt,tr,es,na,../practice_trial/audio/tr7.wav,Why do you have my camisa?,lt_tr_es_na_tr7,-,-,-,-,-,-,../image/america.png,../image/spain.png,,,,,,,,,,,,,,,,,,,,,,0,0,0,0,0,6,6,6,,,,,,,,,,,,,,,,,,235.13384045800194,235.3836609160062,235.37829304102343,236.13627791667048,240.40284187498037,"['lshift', 'rshift']","[1.3009760829154402, 2.9629180829506367]",,,,,,,,070,001,2023-05-05_16h30.18.907,exp_g1,2022.2.5,None,
tr8,lt,tr,es,na,../practice_trial/audio/tr8.wav,Where did you find his chanclas?,lt_tr_es_na_tr8,-,-,-,-,-,-,../image/america.png,../image/spain.png,,,,,,,,,,,,,,,,,,,,,,0,0,0,0,0,7,7,7,,,,,,,,,,,,,,,,,,240.40284187498037,240.62952083302662,240.64577345794532,241.38576254161697,245.62065808300395,"['lshift', 'rshift']","[1.2301054169656709, 2.0077728749020025]",,,,,,,,070,001,2023-05-05_16h30.18.907,exp_g1,2022.2.5,None,
,,,,,,,,,,,,,,,,,,,,,,,,,,,,,,,,,,,,,0,0,0,0,,,,,,,,,,,,,,,,,,,,,,,,,,,,,,,,,,,,070,001,2023-05-05_16h30.18.907,exp_g1,2022.2.5,None,
169.0,l2,t,es,f0c,../audio/169.wav,,l2_t_es_f0c_169,,,,,,,../image/america.png,../image/spain.png,,,2,america,spain,,,,1,,,,,,,,,,,,,,,,,,,,,0,0,0,53,,,,,,,,,,,,,,,,,,,,,250.75746079103556,250.94570325000677,251.0010805829661,251.69631420768954,255.96428991598077,"['lshift', 'lshift', 'rshift']","[-0.5322151241125539, 1.3510148338973522, 2.567373583908193]",070,001,2023-05-05_16h30.18.907,exp_g1,2022.2.5,None,
124.0,l2,f,sp,na,../audio/124.wav,,l2_f_sp_na_124,,,,,,,../image/america.png,../image/spain.png,,,2,america,spain,,,,None,,,,,,,,,,,,,,,,,,,,,0,1,1,28,,,,,,,,,,,,,,,,,,,,,255.96428991598077,256.1956508749863,256.21281604096293,256.9521571247062,261.2135613330174,"['lshift', 'rshift']","[1.1060831259237602, 2.584035875974223]",070,001,2023-05-05_16h30.18.907,exp_g1,2022.2.5,None,
103.0,l2,f,en,na,../audio/103.wav,,l2_f_en_na_103,,,,,,,../image/america.png,../image/spain.png,,,2,america,spain,,,,None,,,,,,,,,,,,,,,,,,,,,0,2,2,7,,,,,,,,,,,,,,,,,,,,,261.2135613330174,261.4458104580408,261.46277641598135,262.2023657916036,266.4631232499378,"['lshift', 'lshift']","[1.4733018749393523, 2.6894989169668406]",070,001,2023-05-05_16h30.18.907,exp_g1,2022.2.5,None,
112.0,l2,f,se,na,../audio/112.wav,,l2_f_se_na_112,,,,,,,../image/america.png,../image/spain.png,,,2,america,spain,,,,1,,,,,,,,,,,,,,,,,,,,,0,3,3,16,,,,,,,,,,,,,,,,,,,,,266.4631232499378,266.68623287498485,266.7123382909922,267.4514751246354,271.7009222500492,['rshift'],[1.4944974590325728],070,001,2023-05-05_16h30.18.907,exp_g1,2022.2.5,None,
97.0,l2,f,en,na,../audio/097.wav,,l2_f_en_na_097,,,,,,,../image/america.png,../image/spain.png,,,2,america,spain,,,,None,,,,,,,,,,,,,,,,,,,,,0,4,4,1,,,,,,,,,,,,,,,,,,,,,271.7009222500492,271.9448338750517,271.95068279094994,272.7001386666127,276.96302762499545,['lshift'],[1.5247086249291897],070,001,2023-05-05_16h30.18.907,exp_g1,2022.2.5,None,
21.0,l2,t,es,na,../audio/021.wav,,l2_t_es_na_021,,,,,,,../image/america.png,../image/spain.png,,,2,america,spain,,,,1,,,,,,,,,,,,,,,,,,,,,0,5,5,35,,,,,,,,,,,,,,,,,,,,,276.96302762499545,277.1864635000238,277.21292491594795,277.9523044576092,282.2058781660162,"['lshift', 'rshift']","[1.5889676669612527, 2.22827750002034]",070,001,2023-05-05_16h30.18.907,exp_g1,2022.2.5,None,
106.0,l2,f,en,na,../audio/106.wav,,l2_f_en_na_106,,,,,,,../image/america.png,../image/spain.png,,,2,america,spain,,,,None,,,,,,,,,,,,,,,,,,,,,0,6,6,10,,,,,,,,,,,,,,,,,,,,,282.2058781660162,282.4454863750143,282.4519473329419,283.1995788326642,287.4665374159813,"['lshift', 'lshift']","[1.513577500008978, 2.4844808749621734]",070,001,2023-05-05_16h30.18.907,exp_g1,2022.2.5,None,
129.0,l2,f,sp,na,../audio/129.wav,,l2_f_sp_na_129,,,,,,,../image/america.png,../image/spain.png,,,2,america,spain,,,,None,,,,,,,,,,,,,,,,,,,,,0,7,7,33,,,,,,,,,,,,,,,,,,,,,287.4665374159813,287.6954675409943,287.7120937500149,288.45185999962655,292.7141666249372,"['rshift', 'rshift']","[1.6229764999588951, 3.1954544578911737]",070,001,2023-05-05_16h30.18.907,exp_g1,2022.2.5,None,
98.0,l2,f,en,na,../audio/098.wav,,l2_f_en_na_098,,,,,,,../image/america.png,../image/spain.png,,,2,america,spain,,,,None,,,,,,,,,,,,,,,,,,,,,0,8,8,2,,,,,,,,,,,,,,,,,,,,,292.7141666249372,292.94603137497324,292.9615271659568,293.70073537464873,297.9663777910173,['lshift'],[1.4762623339192942],070,001,2023-05-05_16h30.18.907,exp_g1,2022.2.5,None,
128.0,l2,f,sp,na,../audio/128.wav,,l2_f_sp_na_128,,,,,,,../image/america.png,../image/spain.png,,,2,america,spain,,,,None,,,,,,,,,,,,,,,,,,,,,0,9,9,32,,,,,,,,,,,,,,,,,,,,,297.9663777910173,298.19569408299867,298.21136283304077,298.9521114166748,303.2151718749665,"['lshift', 'rshift']","[1.5105340840527788, 2.067251001019031]",070,001,2023-05-05_16h30.18.907,exp_g1,2022.2.5,None,
24.0,l2,t,es,na,../audio/024.wav,,l2_t_es_na_024,,,,,,,../image/america.png,../image/spain.png,,,2,america,spain,,,,1,,,,,,,,,,,,,,,,,,,,,0,10,10,38,,,,,,,,,,,,,,,,,,,,,303.2151718749665,303.4451620000182,303.46250545803923,304.2018339166573,308.4645114579471,"['lshift', 'rshift']","[2.4525641669752076, 3.0677321669645607]",070,001,2023-05-05_16h30.18.907,exp_g1,2022.2.5,None,
116.0,l2,f,se,na,../audio/116.wav,,l2_f_se_na_116,,,,,,,../image/america.png,../image/spain.png,,,2,america,spain,,,,1,,,,,,,,,,,,,,,,,,,,,0,11,11,20,,,,,,,,,,,,,,,,,,,,,308.4645114579471,308.6958299999824,308.712035540957,309.4529186667098,313.7128384159878,['rshift'],[1.4245756670134142],070,001,2023-05-05_16h30.18.907,exp_g1,2022.2.5,None,
114.0,l2,f,se,na,../audio/114.wav,,l2_f_se_na_114,,,,,,,../image/america.png,../image/spain.png,,,2,america,spain,,,,1,,,,,,,,,,,,,,,,,,,,,0,12,12,18,,,,,,,,,,,,,,,,,,,,,313.7128384159878,313.9452889999375,313.95149758295156,314.7008656666769,318.96338204096537,['rshift'],[2.095192417036742],070,001,2023-05-05_16h30.18.907,exp_g1,2022.2.5,None,
111.0,l2,f,se,na,../audio/111.wav,,l2_f_se_na_111,,,,,,,../image/america.png,../image/spain.png,,,2,america,spain,,,,1,,,,,,,,,,,,,,,,,,,,,0,13,13,15,,,,,,,,,,,,,,,,,,,,,318.96338204096537,319.1952626249986,319.21189725003205,319.951352041626,324.2167616660008,"['rshift', 'lshift']","[1.5680257919011638, 2.6196820839541033]",070,001,2023-05-05_16h30.18.907,exp_g1,2022.2.5,None,
117.0,l2,f,se,na,../audio/117.wav,,l2_f_se_na_117,,,,,,,../image/america.png,../image/spain.png,,,2,america,spain,,,,1,,,,,,,,,,,,,,,,,,,,,0,14,14,21,,,,,,,,,,,,,,,,,,,,,324.2167616660008,324.44552958302666,324.4623660410289,325.2022811666286,329.46409587503877,['rshift'],[1.583969750907272],070,001,2023-05-05_16h30.18.907,exp_g1,2022.2.5,None,
107.0,l2,f,en,na,../audio/107.wav,,l2_f_en_na_107,,,,,,,../image/america.png,../image/spain.png,,,2,america,spain,,,,None,,,,,,,,,,,,,,,,,,,,,0,15,15,11,,,,,,,,,,,,,,,,,,,,,329.46409587503877,329.69547879102174,329.7121256659739,330.4521278746581,334.7128223750042,['lshift'],[1.7548044580034912],070,001,2023-05-05_16h30.18.907,exp_g1,2022.2.5,None,
121.0,l2,f,sp,na,../audio/121.wav,,l2_f_sp_na_121,,,,,,,../image/america.png,../image/spain.png,,,2,america,spain,,,,None,,,,,,,,,,,,,,,,,,,,,0,16,16,25,,,,,,,,,,,,,,,,,,,,,334.7128223750042,334.94564637495205,334.95211041602306,335.7016661667187,339.9681621249765,['rshift'],[1.375944958999753],070,001,2023-05-05_16h30.18.907,exp_g1,2022.2.5,None,
22.0,l2,t,es,na,../audio/022.wav,,l2_t_es_na_022,,,,,,,../image/america.png,../image/spain.png,,,2,america,spain,,,,1,,,,,,,,,,,,,,,,,,,,,0,17,17,36,,,,,,,,,,,,,,,,,,,,,339.9681621249765,340.1956213329686,340.2111299580429,340.95209699968495,345.2132523750188,"['lshift', 'rshift']","[1.3395091670099646, 2.3270594590576366]",070,001,2023-05-05_16h30.18.907,exp_g1,2022.2.5,None,
110.0,l2,f,en,na,../audio/110.wav,,l2_f_en_na_110,,,,,,,../image/america.png,../image/spain.png,,,2,america,spain,,,,None,,,,,,,,,,,,,,,,,,,,,0,18,18,14,,,,,,,,,,,,,,,,,,,,,345.2132523750188,345.4449516249588,345.46176574996207,346.20266758260937,350.465069458005,['lshift'],[1.7595261669484898],070,001,2023-05-05_16h30.18.907,exp_g1,2022.2.5,None,
164.0,l2,t,es,f0c,../audio/164.wav,,l2_t_es_f0c_164,,,,,,,../image/america.png,../image/spain.png,,,2,america,spain,,,,1,,,,,,,,,,,,,,,,,,,,,0,19,19,48,,,,,,,,,,,,,,,,,,,,,350.465069458005,350.69544658297673,350.71176887501497,351.45235383260683,355.7153734159656,"['lshift', 'rshift']","[1.7674626669613644, 2.4015117919771]",070,001,2023-05-05_16h30.18.907,exp_g1,2022.2.5,None,
99.0,l2,f,en,na,../audio/099.wav,,l2_f_en_na_099,,,,,,,../image/america.png,../image/spain.png,,,2,america,spain,,,,None,,,,,,,,,,,,,,,,,,,,,0,20,20,3,,,,,,,,,,,,,,,,,,,,,355.7153734159656,355.9451961249579,355.9620492910035,356.7016530417061,360.9640238749562,['lshift'],[1.6354839169653133],070,001,2023-05-05_16h30.18.907,exp_g1,2022.2.5,None,
166.0,l2,t,es,f0c,../audio/166.wav,,l2_t_es_f0c_166,,,,,,,../image/america.png,../image/spain.png,,,2,america,spain,,,,1,,,,,,,,,,,,,,,,,,,,,0,21,21,50,,,,,,,,,,,,,,,,,,,,,360.9640238749562,361.19498691603076,361.2115620409604,361.95102941670143,366.2114738749806,"['lshift', 'rshift']","[1.3844871249748394, 2.9505815419834107]",070,001,2023-05-05_16h30.18.907,exp_g1,2022.2.5,None,
101.0,l2,f,en,na,../audio/101.wav,,l2_f_en_na_101,,,,,,,../image/america.png,../image/spain.png,,,2,america,spain,,,,None,,,,,,,,,,,,,,,,,,,,,0,22,22,5,,,,,,,,,,,,,,,,,,,,,366.2114738749806,366.44489133299794,366.4513792080106,367.20168266661153,371.4642987080151,['lshift'],[1.6345516669098288],070,001,2023-05-05_16h30.18.907,exp_g1,2022.2.5,None,
119.0,l2,f,se,na,../audio/119.wav,,l2_f_se_na_119,,,,,,,../image/america.png,../image/spain.png,,,2,america,spain,,,,1,,,,,,,,,,,,,,,,,,,,,0,23,23,23,,,,,,,,,,,,,,,,,,,,,371.4642987080151,371.6948071660008,371.71197929093614,372.45236258261525,376.7129064160399,['rshift'],[1.468970707966946],070,001,2023-05-05_16h30.18.907,exp_g1,2022.2.5,None,
109.0,l2,f,en,na,../audio/109.wav,,l2_f_en_na_109,,,,,,,../image/america.png,../image/spain.png,,,2,america,spain,,,,None,,,,,,,,,,,,,,,,,,,,,0,24,24,13,,,,,,,,,,,,,,,,,,,,,376.7129064160399,376.9448730000295,376.96205037494656,377.70109137468194,381.96311545802746,['lshift'],[1.5729481669841334],070,001,2023-05-05_16h30.18.907,exp_g1,2022.2.5,None,
118.0,l2,f,se,na,../audio/118.wav,,l2_f_se_na_118,,,,,,,../image/america.png,../image/spain.png,,,2,america,spain,,,,1,,,,,,,,,,,,,,,,,,,,,0,25,25,22,,,,,,,,,,,,,,,,,,,,,381.96311545802746,382.1953019159846,382.2114531249972,382.95085704169855,387.2125071249902,['rshift'],[1.8611934588989243],070,001,2023-05-05_16h30.18.907,exp_g1,2022.2.5,None,
27.0,l2,t,es,na,../audio/027.wav,,l2_t_es_na_027,,,,,,,../image/america.png,../image/spain.png,,,2,america,spain,,,,1,,,,,,,,,,,,,,,,,,,,,0,26,26,41,,,,,,,,,,,,,,,,,,,,,387.2125071249902,387.4452235830249,387.4516389160417,388.2011737916075,392.46407554100733,"['lshift', 'rshift']","[1.7189337919699028, 2.3378290419932455]",070,001,2023-05-05_16h30.18.907,exp_g1,2022.2.5,None,
165.0,l2,t,es,f0c,../audio/165.wav,,l2_t_es_f0c_165,,,,,,,../image/america.png,../image/spain.png,,,2,america,spain,,,,1,,,,,,,,,,,,,,,,,,,,,0,27,27,49,,,,,,,,,,,,,,,,,,,,,392.46407554100733,392.69523275003303,392.71018841594923,393.4514072077038,397.71516000002157,"['lshift', 'rshift']","[2.051642374950461, 2.4554349170066416]",070,001,2023-05-05_16h30.18.907,exp_g1,2022.2.5,None,
123.0,l2,f,sp,na,../audio/123.wav,,l2_f_sp_na_123,,,,,,,../image/america.png,../image/spain.png,,,2,america,spain,,,,None,,,,,,,,,,,,,,,,,,,,,0,28,28,27,,,,,,,,,,,,,,,,,,,,,397.71516000002157,397.9450757500017,397.9617220830405,398.70153416664493,402.963407290983,['rshift'],[1.8918318329378963],070,001,2023-05-05_16h30.18.907,exp_g1,2022.2.5,None,
108.0,l2,f,en,na,../audio/108.wav,,l2_f_en_na_108,,,,,,,../image/america.png,../image/spain.png,,,2,america,spain,,,,None,,,,,,,,,,,,,,,,,,,,,0,29,29,12,,,,,,,,,,,,,,,,,,,,,402.963407290983,403.19510124996305,403.21165716601536,403.95052695769505,408.2132362079574,['lshift'],[1.594501291983761],070,001,2023-05-05_16h30.18.907,exp_g1,2022.2.5,None,
104.0,l2,f,en,na,../audio/104.wav,,l2_f_en_na_104,,,,,,,../image/america.png,../image/spain.png,,,2,america,spain,,,,None,,,,,,,,,,,,,,,,,,,,,0,30,30,8,,,,,,,,,,,,,,,,,,,,,408.2132362079574,408.444615541026,408.46176504099276,409.20233283267976,413.46469412499573,['lshift'],[1.6346276249969378],070,001,2023-05-05_16h30.18.907,exp_g1,2022.2.5,None,
105.0,l2,f,en,na,../audio/105.wav,,l2_f_en_na_105,,,,,,,../image/america.png,../image/spain.png,,,2,america,spain,,,,None,,,,,,,,,,,,,,,,,,,,,0,31,31,9,,,,,,,,,,,,,,,,,,,,,413.46469412499573,413.69509475002997,413.7113684579963,414.45133862464377,418.7127745830221,['lshift'],[1.3260501249460503],070,001,2023-05-05_16h30.18.907,exp_g1,2022.2.5,None,
100.0,l2,f,en,na,../audio/100.wav,,l2_f_en_na_100,,,,,,,../image/america.png,../image/spain.png,,,2,america,spain,,,,None,,,,,,,,,,,,,,,,,,,,,0,32,32,4,,,,,,,,,,,,,,,,,,,,,418.7127745830221,418.94471387495287,418.9617571249837,419.70051583269765,423.96440429100767,['lshift'],[1.5850421669892967],070,001,2023-05-05_16h30.18.907,exp_g1,2022.2.5,None,
167.0,l2,t,es,f0c,../audio/167.wav,,l2_t_es_f0c_167,,,,,,,../image/america.png,../image/spain.png,,,2,america,spain,,,,1,,,,,,,,,,,,,,,,,,,,,0,33,33,51,,,,,,,,,,,,,,,,,,,,,423.96440429100767,424.1945533750113,424.2116685829824,424.95164108270933,429.2111953330459,"['lshift', 'rshift']","[1.395279417047277, 2.343911667005159]",070,001,2023-05-05_16h30.18.907,exp_g1,2022.2.5,None,
125,l2,f,sp,na,../audio/125.wav,,l2_f_sp_na_125,,,,,,,../image/america.png,../image/spain.png,,,2,america,spain,,,,None,,,,,,,,,,,,,,,,,,,,,0,34,34,29,,,,,,,,,,,,,,,,,,,,,429.2111953330459,429.4445190000115,429.4496833749581,430.2011282916103,434.4635837910464,['rshift'],[1.9617620840435848],070,001,2023-05-05_16h30.18.907,exp_g1,2022.2.5,None,
162.0,l2,t,es,f0c,../audio/162.wav,,l2_t_es_f0c_162,,,,,,,../image/america.png,../image/spain.png,,,2,america,spain,,,,1,,,,,,,,,,,,,,,,,,,,,0,35,35,46,,,,,,,,,,,,,,,,,,,,,434.4635837910464,434.69378612504806,434.7104666250525,435.4520723747012,439.7123305830173,"['rshift', 'lshift', 'lshift', 'rshift']","[1.1798753750044852, 1.779911958030425, 2.9208395830355585, 3.2359629169804975]",070,001,2023-05-05_16h30.18.907,exp_g1,2022.2.5,None,
120.0,l2,f,se,na,../audio/120.wav,,l2_f_se_na_120,,,,,,,../image/america.png,../image/spain.png,,,2,america,spain,,,,1,,,,,,,,,,,,,,,,,,,,,0,36,36,24,,,,,,,,,,,,,,,,,,,,,439.7123305830173,439.94482491596136,439.95115754101425,440.7001159996182,444.9624883750221,"['rshift', 'lshift']","[1.593791167018935, 3.0311864590039477]",070,001,2023-05-05_16h30.18.907,exp_g1,2022.2.5,None,
127.0,l2,f,sp,na,../audio/127.wav,,l2_f_sp_na_127,,,,,,,../image/america.png,../image/spain.png,,,2,america,spain,,,,None,,,,,,,,,,,,,,,,,,,,,0,37,37,31,,,,,,,,,,,,,,,,,,,,,444.9624883750221,445.1947344579967,445.2113395000342,445.95092674967987,450.21153062500525,['rshift'],[2.2178537090076134],070,001,2023-05-05_16h30.18.907,exp_g1,2022.2.5,None,
25.0,l2,t,es,na,../audio/025.wav,,l2_t_es_na_025,,,,,,,../image/america.png,../image/spain.png,,,2,america,spain,,,,1,,,,,,,,,,,,,,,,,,,,,0,38,38,39,,,,,,,,,,,,,,,,,,,,,450.21153062500525,450.44432612496894,450.4508185000159,451.20116566663296,455.4623809159966,"['lshift', 'rshift']","[2.5127156260423362, 3.0186666670488194]",070,001,2023-05-05_16h30.18.907,exp_g1,2022.2.5,None,
23.0,l2,t,es,na,../audio/023.wav,,l2_t_es_na_023,,,,,,,../image/america.png,../image/spain.png,,,2,america,spain,,,,1,,,,,,,,,,,,,,,,,,,,,0,39,39,37,,,,,,,,,,,,,,,,,,,,,455.4623809159966,455.69428483303636,455.7110981659498,456.4504218326804,460.7167831660481,"['lshift', 'rshift']","[1.8358038339065388, 2.4581610838649794]",070,001,2023-05-05_16h30.18.907,exp_g1,2022.2.5,None,
163.0,l2,t,es,f0c,../audio/163.wav,,l2_t_es_f0c_163,,,,,,,../image/america.png,../image/spain.png,,,2,america,spain,,,,1,,,,,,,,,,,,,,,,,,,,,0,40,40,47,,,,,,,,,,,,,,,,,,,,,460.7167831660481,460.9447917500511,460.9614582499489,461.70120312465974,465.963259125012,"['lshift', 'rshift']","[2.2920508339302614, 3.1009373338893056]",070,001,2023-05-05_16h30.18.907,exp_g1,2022.2.5,None,
29.0,l2,t,es,na,../audio/029.wav,,l2_t_es_na_029,,,,,,,../image/america.png,../image/spain.png,,,2,america,spain,,,,1,,,,,,,,,,,,,,,,,,,,,0,41,41,43,,,,,,,,,,,,,,,,,,,,,465.963259125012,466.1946951659629,466.2110305830138,466.9512183326917,471.21334329096135,"['lshift', 'rshift']","[3.0441455009859055, 3.6255402509123087]",070,001,2023-05-05_16h30.18.907,exp_g1,2022.2.5,None,
126.0,l2,f,sp,na,../audio/126.wav,,l2_f_sp_na_126,,,,,,,../image/america.png,../image/spain.png,,,2,america,spain,,,,None,,,,,,,,,,,,,,,,,,,,,0,42,42,30,,,,,,,,,,,,,,,,,,,,,471.21334329096135,471.4448155410355,471.4597331249388,472.2010778326696,476.4619055830408,['rshift'],[1.3850629579974338],070,001,2023-05-05_16h30.18.907,exp_g1,2022.2.5,None,
96.0,l2,f,en,na,../audio/096.wav,,l2_f_en_na_096,,,,,,,../image/america.png,../image/spain.png,,,2,america,spain,,,,None,,,,,,,,,,,,,,,,,,,,,0,43,43,0,,,,,,,,,,,,,,,,,,,,,476.4619055830408,476.69458437501453,476.7009349579457,477.45126070763604,481.71246974996757,['lshift'],[1.8464670829707757],070,001,2023-05-05_16h30.18.907,exp_g1,2022.2.5,None,
122.0,l2,f,sp,na,../audio/122.wav,,l2_f_sp_na_122,,,,,,,../image/america.png,../image/spain.png,,,2,america,spain,,,,None,,,,,,,,,,,,,,,,,,,,,0,44,44,26,,,,,,,,,,,,,,,,,,,,,481.71246974996757,481.9440941249486,481.9616054579383,482.7004644167066,486.96250991604757,['rshift'],[1.5926734170643613],070,001,2023-05-05_16h30.18.907,exp_g1,2022.2.5,None,
113.0,l2,f,se,na,../audio/113.wav,,l2_f_se_na_113,,,,,,,../image/america.png,../image/spain.png,,,2,america,spain,,,,1,,,,,,,,,,,,,,,,,,,,,0,45,45,17,,,,,,,,,,,,,,,,,,,,,486.96250991604757,487.19412454101257,487.21088858298026,487.9506407916235,492.21098837500904,['rshift'],[1.6714602509746328],070,001,2023-05-05_16h30.18.907,exp_g1,2022.2.5,None,
115.0,l2,f,se,na,../audio/115.wav,,l2_f_se_na_115,,,,,,,../image/america.png,../image/spain.png,,,2,america,spain,,,,1,,,,,,,,,,,,,,,,,,,,,0,46,46,19,,,,,,,,,,,,,,,,,,,,,492.21098837500904,492.44411112496164,492.45069270802196,493.20127087465175,497.46300179103855,"['rshift', 'lshift']","[1.7412992919562384, 2.6110642079729587]",070,001,2023-05-05_16h30.18.907,exp_g1,2022.2.5,None,
102.0,l2,f,en,na,../audio/102.wav,,l2_f_en_na_102,,,,,,,../image/america.png,../image/spain.png,,,2,america,spain,,,,None,,,,,,,,,,,,,,,,,,,,,0,47,47,6,,,,,,,,,,,,,,,,,,,,,497.46300179103855,497.69419624994043,497.71075887500774,498.45074529160433,502.7128779159393,['lshift'],[1.5939719999441877],070,001,2023-05-05_16h30.18.907,exp_g1,2022.2.5,None,
28.0,l2,t,es,na,../audio/028.wav,,l2_t_es_na_028,,,,,,,../image/america.png,../image/spain.png,,,2,america,spain,,,,1,,,,,,,,,,,,,,,,,,,,,0,48,48,42,,,,,,,,,,,,,,,,,,,,,502.7128779159393,502.94389637501445,502.96061287494376,503.70001929166415,507.96214587497525,"['lshift', 'rshift']","[1.5598353759851307, 2.2563495009671897]",070,001,2023-05-05_16h30.18.907,exp_g1,2022.2.5,None,
161.0,l2,t,es,f0c,../audio/161.wav,,l2_t_es_f0c_161,,,,,,,../image/america.png,../image/spain.png,,,2,america,spain,,,,1,,,,,,,,,,,,,,,,,,,,,0,49,49,45,,,,,,,,,,,,,,,,,,,,,507.96214587497525,508.1944053750485,508.21110841596965,508.951032791698,513.2130234159995,"['lshift', 'rshift']","[1.8048936668783426, 2.3608654169365764]",070,001,2023-05-05_16h30.18.907,exp_g1,2022.2.5,None,
30.0,l2,t,es,na,../audio/030.wav,,l2_t_es_na_030,,,,,,,../image/america.png,../image/spain.png,,,2,america,spain,,,,1,,,,,,,,,,,,,,,,,,,,,0,50,50,44,,,,,,,,,,,,,,,,,,,,,513.2130234159995,513.4439420000417,513.4612390409457,514.2002852917105,518.4622824159451,"['lshift', 'rshift']","[1.4844463339541107, 2.526593833928928]",070,001,2023-05-05_16h30.18.907,exp_g1,2022.2.5,None,
26.0,l2,t,es,na,../audio/026.wav,,l2_t_es_na_026,,,,,,,../image/america.png,../image/spain.png,,,2,america,spain,,,,1,,,,,,,,,,,,,,,,,,,,,0,51,51,40,,,,,,,,,,,,,,,,,,,,,518.4622824159451,518.6945742079988,518.7105332079809,519.4499652496927,523.7180971660418,"['lshift', 'rshift']","[1.594062250922434, 2.4778564588632435]",070,001,2023-05-05_16h30.18.907,exp_g1,2022.2.5,None,
170.0,l2,t,es,f0c,../audio/170.wav,,l2_t_es_f0c_170,,,,,,,../image/america.png,../image/spain.png,,,2,america,spain,,,,1,,,,,,,,,,,,,,,,,,,,,0,52,52,54,,,,,,,,,,,,,,,,,,,,,523.7180971660418,523.9443773749517,523.9607855830109,524.6992941667015,528.9628272500122,"['lshift', 'rshift']","[1.5407877499237657, 2.302714291960001]",070,001,2023-05-05_16h30.18.907,exp_g1,2022.2.5,None,
130.0,l2,f,sp,na,../audio/130.wav,,l2_f_sp_na_130,,,,,,,../image/america.png,../image/spain.png,,,2,america,spain,,,,None,,,,,,,,,,,,,,,,,,,,,0,53,53,34,,,,,,,,,,,,,,,,,,,,,528.9628272500122,529.1943268750329,529.2107370409649,529.9510807917143,534.2113410000456,['rshift'],[1.5002811669837683],070,001,2023-05-05_16h30.18.907,exp_g1,2022.2.5,None,
168.0,l2,t,es,f0c,../audio/168.wav,,l2_t_es_f0c_168,,,,,,,../image/america.png,../image/spain.png,,,2,america,spain,,,,1,,,,,,,,,,,,,,,,,,,,,0,54,54,52,,,,,,,,,,,,,,,,,,,,,534.2113410000456,534.4434309999924,534.4605416250415,535.2007612916098,539.433967791032,"['lshift', 'rshift']","[1.6923935839440674, 2.263076750910841]",070,001,2023-05-05_16h30.18.907,exp_g1,2022.2.5,None,
