participant,session,date,expName,psychopyVersion,OS,frameRate,exp1_trial_key.keys,exp1_trial_loop.thisRepN,exp1_trial_loop.thisTrialN,exp1_trial_loop.thisN,exp1_trial_loop.thisIndex,exp1_trial_loop.ran,num,list,cond,lang,type,sound_dir,phr,sent_code,mat,mat_num,emb_num,emb,cut,mat_f0_c,left,right,correct_img,correct_key,exp1_retrial.thisRepN,exp1_retrial.thisTrialN,exp1_retrial.thisN,exp1_retrial.thisIndex,exp1_retrial.ran,exp1_trial_key.rt,exp1_key.keys,exp1_key.corr,exp1_key.rt,exp1_loop.thisRepN,exp1_loop.thisTrialN,exp1_loop.thisN,exp1_loop.thisIndex,exp1_loop.ran,exp_num,image,image_alt,left_img,right_img,image_dir,exp2_trial_key.keys,exp2_trial_key.rt,exp2_trial_loop.thisRepN,exp2_trial_loop.thisTrialN,exp2_trial_loop.thisN,exp2_trial_loop.thisIndex,exp2_trial_loop.ran,exp2_retrial.thisRepN,exp2_retrial.thisTrialN,exp2_retrial.thisN,exp2_retrial.thisIndex,exp2_retrial.ran,exp2_key.keys,exp2_key.rt,exp2_loop.thisRepN,exp2_loop.thisTrialN,exp2_loop.thisN,exp2_loop.thisIndex,exp2_loop.ran,cs
006,001,2023-10-19_23h36.34.636,exp_g2,2022.2.5,Win32,60.35367252,,,,,,,,,,,,,,,,,,,,,,,,,,,,,,,,,,,,,,,,,,,,,,,,,,,,,,,,,,,,,,,,
006,001,2023-10-19_23h36.34.636,exp_g2,2022.2.5,Win32,60.35367252,,0,0,0,0,1,tr1,lt,tr,en,na,practice_trial/audio/tr1.wav,Where are your kids?,lt_tr_en_na_tr1,-,-,-,-,-,-,image/kids.png,image/plates.png,kids,lshift,,,,,,,,,,,,,,,,,,,,,,,,,,,,,,,,,,,,,,,,
006,001,2023-10-19_23h36.34.636,exp_g2,2022.2.5,Win32,60.35367252,,0,1,1,1,1,tr2,lt,tr,en,na,practice_trial/audio/tr2.wav,Who is buying my car?,lt_tr_en_na_tr2,-,-,-,-,-,-,image/bag.png,image/car.png,car,rshift,,,,,,,,,,,,,,,,,,,,,,,,,,,,,,,,,,,,,,,,
006,001,2023-10-19_23h36.34.636,exp_g2,2022.2.5,Win32,60.35367252,,0,2,2,2,1,tr3,lt,tr,sp,na,practice_trial/audio/tr3.wav,¿Dónde está mi perro?,lt_tr_sp_na_tr3,-,-,-,-,-,-,image/dog.png,image/grandma.png,dog,lshift,,,,,,,,,,,,,,,,,,,,,,,,,,,,,,,,,,,,,,,,
006,001,2023-10-19_23h36.34.636,exp_g2,2022.2.5,Win32,60.35367252,,0,3,3,3,1,tr4,lt,tr,sp,na,practice_trial/audio/tr4.wav,¿De quién es la bolsa?,lt_tr_sp_na_tr4,-,-,-,-,-,-,image/shirt.png,image/bag.png,bag,rshift,,,,,,,,,,,,,,,,,,,,,,,,,,,,,,,,,,,,,,,,
006,001,2023-10-19_23h36.34.636,exp_g2,2022.2.5,Win32,60.35367252,,0,4,4,4,1,tr5,lt,tr,se,na,practice_trial/audio/tr5.wav,¿Dónde encontraste sus donuts?,lt_tr_se_na_tr5,-,-,-,-,-,-,image/donut.png,image/cups.png,donut,lshift,,,,,,,,,,,,,,,,,,,,,,,,,,,,,,,,,,,,,,,,
006,001,2023-10-19_23h36.34.636,exp_g2,2022.2.5,Win32,60.35367252,,0,5,5,5,1,tr6,lt,tr,se,na,practice_trial/audio/tr6.wav,¿Cuándo compraste tu sweater?,lt_tr_se_na_tr6,-,-,-,-,-,-,image/chair.png,image/sweater.png,sweater,rshift,,,,,,,,,,,,,,,,,,,,,,,,,,,,,,,,,,,,,,,,
006,001,2023-10-19_23h36.34.636,exp_g2,2022.2.5,Win32,60.35367252,,0,6,6,6,1,tr7,lt,tr,es,na,practice_trial/audio/tr7.wav,Why do you have my camisa?,lt_tr_es_na_tr7,-,-,-,-,-,-,image/shirt.png,image/wallet.png,shirt,lshift,,,,,,,,,,,,,,,,,,,,,,,,,,,,,,,,,,,,,,,,
006,001,2023-10-19_23h36.34.636,exp_g2,2022.2.5,Win32,60.35367252,,0,7,7,7,1,tr8,lt,tr,es,na,practice_trial/audio/tr8.wav,Where did you find his chanclas?,lt_tr_es_na_tr8,-,-,-,-,-,-,image/key.png,image/flipflops.png,flipflops,rshift,,,,,,,,,,,,,,,,,,,,,,,,,,,,,,,,,,,,,,,,
006,001,2023-10-19_23h36.34.636,exp_g2,2022.2.5,Win32,60.35367252,,,,,,,,,,,,,,,,,,,,,,,,,0,0,0,0,1,,,,,,,,,,,,,,,,,,,,,,,,,,,,,,,,,,,
006,001,2023-10-19_23h36.34.636,exp_g2,2022.2.5,Win32,60.35367252,"[""lshift""]",0,0,0,0,1,tr1,lt,tr,en,na,practice_trial/audio/tr1.wav,Where are your kids?,lt_tr_en_na_tr1,-,-,-,-,-,-,image/kids.png,image/plates.png,kids,lshift,,,,,,[2.3208000000715288],,,,,,,,,,,,,,,,,,,,,,,,,,,,,,,,,,
006,001,2023-10-19_23h36.34.636,exp_g2,2022.2.5,Win32,60.35367252,"[""rshift""]",0,1,1,1,1,tr2,lt,tr,en,na,practice_trial/audio/tr2.wav,Who is buying my car?,lt_tr_en_na_tr2,-,-,-,-,-,-,image/bag.png,image/car.png,car,rshift,,,,,,[2.447499999999991],,,,,,,,,,,,,,,,,,,,,,,,,,,,,,,,,,
006,001,2023-10-19_23h36.34.636,exp_g2,2022.2.5,Win32,60.35367252,"[""lshift""]",0,2,2,2,1,tr3,lt,tr,sp,na,practice_trial/audio/tr3.wav,¿Dónde está mi perro?,lt_tr_sp_na_tr3,-,-,-,-,-,-,image/dog.png,image/grandma.png,dog,lshift,,,,,,[2.207300000071527],,,,,,,,,,,,,,,,,,,,,,,,,,,,,,,,,,
006,001,2023-10-19_23h36.34.636,exp_g2,2022.2.5,Win32,60.35367252,"[""rshift""]",0,3,3,3,1,tr4,lt,tr,sp,na,practice_trial/audio/tr4.wav,¿De quién es la bolsa?,lt_tr_sp_na_tr4,-,-,-,-,-,-,image/shirt.png,image/bag.png,bag,rshift,,,,,,[2.775499999999994],,,,,,,,,,,,,,,,,,,,,,,,,,,,,,,,,,
006,001,2023-10-19_23h36.34.636,exp_g2,2022.2.5,Win32,60.35367252,"[""lshift""]",0,4,4,4,1,tr5,lt,tr,se,na,practice_trial/audio/tr5.wav,¿Dónde encontraste sus donuts?,lt_tr_se_na_tr5,-,-,-,-,-,-,image/donut.png,image/cups.png,donut,lshift,,,,,,[2.7990000000000066],,,,,,,,,,,,,,,,,,,,,,,,,,,,,,,,,,
006,001,2023-10-19_23h36.34.636,exp_g2,2022.2.5,Win32,60.35367252,"[""rshift""]",0,5,5,5,1,tr6,lt,tr,se,na,practice_trial/audio/tr6.wav,¿Cuándo compraste tu sweater?,lt_tr_se_na_tr6,-,-,-,-,-,-,image/chair.png,image/sweater.png,sweater,rshift,,,,,,[2.583700000047685],,,,,,,,,,,,,,,,,,,,,,,,,,,,,,,,,,
006,001,2023-10-19_23h36.34.636,exp_g2,2022.2.5,Win32,60.35367252,"[""rshift""]",0,6,6,6,1,tr7,lt,tr,es,na,practice_trial/audio/tr7.wav,Why do you have my camisa?,lt_tr_es_na_tr7,-,-,-,-,-,-,image/shirt.png,image/wallet.png,shirt,lshift,,,,,,[2.239799999952325],,,,,,,,,,,,,,,,,,,,,,,,,,,,,,,,,,
006,001,2023-10-19_23h36.34.636,exp_g2,2022.2.5,Win32,60.35367252,"[""rshift""]",0,7,7,7,1,tr8,lt,tr,es,na,practice_trial/audio/tr8.wav,Where did you find his chanclas?,lt_tr_es_na_tr8,-,-,-,-,-,-,image/key.png,image/flipflops.png,flipflops,rshift,,,,,,[2.2538000000715215],,,,,,,,,,,,,,,,,,,,,,,,,,,,,,,,,,
006,001,2023-10-19_23h36.34.636,exp_g2,2022.2.5,Win32,60.35367252,,,,,,,,,,,,,,,,,,,,,,,,,1,0,1,0,1,,,,,,,,,,,,,,,,,,,,,,,,,,,,,,,,,,,
006,001,2023-10-19_23h36.34.636,exp_g2,2022.2.5,Win32,60.35367252,"[""lshift""]",0,0,0,0,1,tr1,lt,tr,en,na,practice_trial/audio/tr1.wav,Where are your kids?,lt_tr_en_na_tr1,-,-,-,-,-,-,image/kids.png,image/plates.png,kids,lshift,,,,,,[2.1996000000238496],,,,,,,,,,,,,,,,,,,,,,,,,,,,,,,,,,
006,001,2023-10-19_23h36.34.636,exp_g2,2022.2.5,Win32,60.35367252,"[""rshift""]",0,1,1,1,1,tr2,lt,tr,en,na,practice_trial/audio/tr2.wav,Who is buying my car?,lt_tr_en_na_tr2,-,-,-,-,-,-,image/bag.png,image/car.png,car,rshift,,,,,,[2.2602999999523092],,,,,,,,,,,,,,,,,,,,,,,,,,,,,,,,,,
006,001,2023-10-19_23h36.34.636,exp_g2,2022.2.5,Win32,60.35367252,"[""lshift""]",0,2,2,2,1,tr3,lt,tr,sp,na,practice_trial/audio/tr3.wav,¿Dónde está mi perro?,lt_tr_sp_na_tr3,-,-,-,-,-,-,image/dog.png,image/grandma.png,dog,lshift,,,,,,[2.2948000000715183],,,,,,,,,,,,,,,,,,,,,,,,,,,,,,,,,,
006,001,2023-10-19_23h36.34.636,exp_g2,2022.2.5,Win32,60.35367252,"[""rshift""]",0,3,3,3,1,tr4,lt,tr,sp,na,practice_trial/audio/tr4.wav,¿De quién es la bolsa?,lt_tr_sp_na_tr4,-,-,-,-,-,-,image/shirt.png,image/bag.png,bag,rshift,,,,,,[2.6278999999761368],,,,,,,,,,,,,,,,,,,,,,,,,,,,,,,,,,
006,001,2023-10-19_23h36.34.636,exp_g2,2022.2.5,Win32,60.35367252,"[""lshift""]",0,4,4,4,1,tr5,lt,tr,se,na,practice_trial/audio/tr5.wav,¿Dónde encontraste sus donuts?,lt_tr_se_na_tr5,-,-,-,-,-,-,image/donut.png,image/cups.png,donut,lshift,,,,,,[2.7117000000476708],,,,,,,,,,,,,,,,,,,,,,,,,,,,,,,,,,
006,001,2023-10-19_23h36.34.636,exp_g2,2022.2.5,Win32,60.35367252,"[""rshift""]",0,5,5,5,1,tr6,lt,tr,se,na,practice_trial/audio/tr6.wav,¿Cuándo compraste tu sweater?,lt_tr_se_na_tr6,-,-,-,-,-,-,image/chair.png,image/sweater.png,sweater,rshift,,,,,,[2.6117999999522965],,,,,,,,,,,,,,,,,,,,,,,,,,,,,,,,,,
006,001,2023-10-19_23h36.34.636,exp_g2,2022.2.5,Win32,60.35367252,"[""rshift""]",0,6,6,6,1,tr7,lt,tr,es,na,practice_trial/audio/tr7.wav,Why do you have my camisa?,lt_tr_es_na_tr7,-,-,-,-,-,-,image/shirt.png,image/wallet.png,shirt,lshift,,,,,,[2.4575000000000102],,,,,,,,,,,,,,,,,,,,,,,,,,,,,,,,,,
006,001,2023-10-19_23h36.34.636,exp_g2,2022.2.5,Win32,60.35367252,"[""rshift""]",0,7,7,7,1,tr8,lt,tr,es,na,practice_trial/audio/tr8.wav,Where did you find his chanclas?,lt_tr_es_na_tr8,-,-,-,-,-,-,image/key.png,image/flipflops.png,flipflops,rshift,,,,,,[2.2394999999999925],,,,,,,,,,,,,,,,,,,,,,,,,,,,,,,,,,
006,001,2023-10-19_23h36.34.636,exp_g2,2022.2.5,Win32,60.35367252,,,,,,,,,,,,,,,,,,,,,,,,,,,,,,,,,,,,,,,,,,,,,,,,,,,,,,,,,,,,,,,,
006,001,2023-10-19_23h36.34.636,exp_g2,2022.2.5,Win32,60.35367252,,,,,,,122,l2,f,sp,na,audio/122.wav,,l2_f_sp_na_122,,,,,,,image/desk.png,image/chair.png,chair,rshift,,,,,,,lshift,0,3.1466,0,0,0,26,1,1,chair,desk,desk,chair,,,,,,,,,,,,,,,,,,,,,
006,001,2023-10-19_23h36.34.636,exp_g2,2022.2.5,Win32,60.35367252,,,,,,,029,l2,t,es,na,audio/029.wav,,l2_t_es_na_029,,,,,,,image/armchair.png,image/ring.png,armchair,lshift,,,,,,,rshift,0,2.9284,0,1,1,43,1,1,armchair,ring,armchair,ring,,,,,,,,,,,,,,,,,,,,,
006,001,2023-10-19_23h36.34.636,exp_g2,2022.2.5,Win32,60.35367252,,,,,,,115,l2,f,se,na,audio/115.wav,,l2_f_se_na_115,,,,,,,image/notebook.png,image/cellphone.png,notebook,lshift,,,,,,,lshift,1,3.0257,0,2,2,19,1,1,notebook,cellphone,notebook,cellphone,,,,,,,,,,,,,,,,,,,,,
006,001,2023-10-19_23h36.34.636,exp_g2,2022.2.5,Win32,60.35367252,,,,,,,153,l1,t,es,f0c,audio/153.wav,,l1_t_es_f0c_153,,,,,,,image/cellphone.png,image/book.png,cellphone,lshift,,,,,,,rshift,0,2.9003,0,3,3,47,1,1,cellphone,book,cellphone,book,,,,,,,,,,,,,,,,,,,,,
006,001,2023-10-19_23h36.34.636,exp_g2,2022.2.5,Win32,60.35367252,,,,,,,028,l2,t,es,na,audio/028.wav,,l2_t_es_na_028,,,,,,,image/pants.png,image/glasses.png,glasses,rshift,,,,,,,rshift,1,2.4808,0,4,4,42,1,1,glasses,pants,pants,glasses,,,,,,,,,,,,,,,,,,,,,
006,001,2023-10-19_23h36.34.636,exp_g2,2022.2.5,Win32,60.35367252,,,,,,,123,l2,f,sp,na,audio/123.wav,,l2_f_sp_na_123,,,,,,,image/sweater.png,image/cellphone.png,sweater,lshift,,,,,,,lshift,1,2.2311,0,5,5,27,1,1,sweater,cellphone,sweater,cellphone,,,,,,,,,,,,,,,,,,,,,
006,001,2023-10-19_23h36.34.636,exp_g2,2022.2.5,Win32,60.35367252,,,,,,,117,l2,f,se,na,audio/117.wav,,l2_f_se_na_117,,,,,,,image/spongebob.png,image/mickeymouse.png,spongebob,lshift,,,,,,,lshift,1,2.5746,0,6,6,21,1,1,spongebob,mickeymouse,spongebob,mickeymouse,,,,,,,,,,,,,,,,,,,,,
006,001,2023-10-19_23h36.34.636,exp_g2,2022.2.5,Win32,60.35367252,,,,,,,119,l2,f,se,na,audio/119.wav,,l2_f_se_na_119,,,,,,,image/penthouse.png,image/rocket.png,penthouse,lshift,,,,,,,lshift,1,2.6825,0,7,7,23,1,1,penthouse,rocket,penthouse,rocket,,,,,,,,,,,,,,,,,,,,,
006,001,2023-10-19_23h36.34.636,exp_g2,2022.2.5,Win32,60.35367252,,,,,,,100,l2,f,en,na,audio/100.wav,,l2_f_en_na_100,,,,,,,image/wallet.png,image/scarf.png,scarf,rshift,,,,,,,rshift,1,2.2207,0,8,8,4,1,1,scarf,wallet,wallet,scarf,,,,,,,,,,,,,,,,,,,,,
006,001,2023-10-19_23h36.34.636,exp_g2,2022.2.5,Win32,60.35367252,,,,,,,158,l1,t,es,f0c,audio/158.wav,,l1_t_es_f0c_158,,,,,,,image/pants.png,image/shirt.png,shirt,rshift,,,,,,,rshift,1,3.2887,0,9,9,52,1,1,shirt,pants,pants,shirt,,,,,,,,,,,,,,,,,,,,,
006,001,2023-10-19_23h36.34.636,exp_g2,2022.2.5,Win32,60.35367252,,,,,,,022,l2,t,es,na,audio/022.wav,,l2_t_es_na_022,,,,,,,image/dog.png,image/cat.png,cat,rshift,,,,,,,rshift,1,2.8365,0,10,10,36,1,1,cat,dog,dog,cat,,,,,,,,,,,,,,,,,,,,,
006,001,2023-10-19_23h36.34.636,exp_g2,2022.2.5,Win32,60.35367252,,,,,,,152,l1,t,es,f0c,audio/152.wav,,l1_t_es_f0c_152,,,,,,,image/car.png,image/grandma.png,grandma,rshift,,,,,,,rshift,1,2.7087,0,11,11,46,1,1,grandma,car,car,grandma,,,,,,,,,,,,,,,,,,,,,
006,001,2023-10-19_23h36.34.636,exp_g2,2022.2.5,Win32,60.35367252,,,,,,,127,l2,f,sp,na,audio/127.wav,,l2_f_sp_na_127,,,,,,,image/cat.png,image/dog.png,cat,lshift,,,,,,,lshift,1,2.668,0,12,12,31,1,1,cat,dog,cat,dog,,,,,,,,,,,,,,,,,,,,,
006,001,2023-10-19_23h36.34.636,exp_g2,2022.2.5,Win32,60.35367252,,,,,,,130,l2,f,sp,na,audio/130.wav,,l2_f_sp_na_130,,,,,,,image/socks.png,image/glasses.png,glasses,rshift,,,,,,,rshift,1,2.3663,0,13,13,34,1,1,glasses,socks,socks,glasses,,,,,,,,,,,,,,,,,,,,,
006,001,2023-10-19_23h36.34.636,exp_g2,2022.2.5,Win32,60.35367252,,,,,,,021,l2,t,es,na,audio/021.wav,,l2_t_es_na_021,,,,,,,image/jacket.png,image/flipflops.png,jacket,lshift,,,,,,,lshift,1,2.4685,0,14,14,35,1,1,jacket,flipflops,jacket,flipflops,,,,,,,,,,,,,,,,,,,,,
006,001,2023-10-19_23h36.34.636,exp_g2,2022.2.5,Win32,60.35367252,,,,,,,157,l1,t,es,f0c,audio/157.wav,,l1_t_es_f0c_157,,,,,,,image/jacket.png,image/shirt.png,jacket,lshift,,,,,,,lshift,1,2.4634,0,15,15,51,1,1,jacket,shirt,jacket,shirt,,,,,,,,,,,,,,,,,,,,,
006,001,2023-10-19_23h36.34.636,exp_g2,2022.2.5,Win32,60.35367252,,,,,,,160,l1,t,es,f0c,audio/160.wav,,l1_t_es_f0c_160,,,,,,,image/ring.png,image/bracelet.png,bracelet,rshift,,,,,,,rshift,1,2.967,0,16,16,54,1,1,bracelet,ring,ring,bracelet,,,,,,,,,,,,,,,,,,,,,
006,001,2023-10-19_23h36.34.636,exp_g2,2022.2.5,Win32,60.35367252,,,,,,,116,l2,f,se,na,audio/116.wav,,l2_f_se_na_116,,,,,,,image/sweatpants.png,image/boxers.png,boxers,rshift,,,,,,,rshift,1,2.6789,0,17,17,20,1,1,boxers,sweatpants,sweatpants,boxers,,,,,,,,,,,,,,,,,,,,,
006,001,2023-10-19_23h36.34.636,exp_g2,2022.2.5,Win32,60.35367252,,,,,,,154,l1,t,es,f0c,audio/154.wav,,l1_t_es_f0c_154,,,,,,,image/basket.png,image/truck.png,truck,rshift,,,,,,,lshift,0,3.0896,0,18,18,48,1,1,truck,basket,basket,truck,,,,,,,,,,,,,,,,,,,,,
006,001,2023-10-19_23h36.34.636,exp_g2,2022.2.5,Win32,60.35367252,,,,,,,112,l2,f,se,na,audio/112.wav,,l2_f_se_na_112,,,,,,,image/burger.png,image/hotdog.png,hotdog,rshift,,,,,,,rshift,1,2.4647,0,19,19,16,1,1,hotdog,burger,burger,hotdog,,,,,,,,,,,,,,,,,,,,,
006,001,2023-10-19_23h36.34.636,exp_g2,2022.2.5,Win32,60.35367252,,,,,,,026,l2,t,es,na,audio/026.wav,,l2_t_es_na_026,,,,,,,image/village.png,image/grandma.png,grandma,rshift,,,,,,,rshift,1,2.5987,0,20,20,40,1,1,grandma,village,village,grandma,,,,,,,,,,,,,,,,,,,,,
006,001,2023-10-19_23h36.34.636,exp_g2,2022.2.5,Win32,60.35367252,,,,,,,025,l2,t,es,na,audio/025.wav,,l2_t_es_na_025,,,,,,,image/cellphone.png,image/truck.png,cellphone,lshift,,,,,,,rshift,0,2.6368,0,21,21,39,1,1,cellphone,truck,cellphone,truck,,,,,,,,,,,,,,,,,,,,,
006,001,2023-10-19_23h36.34.636,exp_g2,2022.2.5,Win32,60.35367252,,,,,,,155,l1,t,es,f0c,audio/155.wav,,l1_t_es_f0c_155,,,,,,,image/flipflops.png,image/flower.png,flipflops,lshift,,,,,,,lshift,1,2.5102,0,22,22,49,1,1,flipflops,flower,flipflops,flower,,,,,,,,,,,,,,,,,,,,,
006,001,2023-10-19_23h36.34.636,exp_g2,2022.2.5,Win32,60.35367252,,,,,,,105,l2,f,en,na,audio/105.wav,,l2_f_en_na_105,,,,,,,image/bed.png,image/plane.png,bed,lshift,,,,,,,lshift,1,3.2294,0,23,23,9,1,1,bed,plane,bed,plane,,,,,,,,,,,,,,,,,,,,,
006,001,2023-10-19_23h36.34.636,exp_g2,2022.2.5,Win32,60.35367252,,,,,,,101,l2,f,en,na,audio/101.wav,,l2_f_en_na_101,,,,,,,image/computer.png,image/bag.png,computer,lshift,,,,,,,lshift,1,2.4701,0,24,24,5,1,1,computer,bag,computer,bag,,,,,,,,,,,,,,,,,,,,,
006,001,2023-10-19_23h36.34.636,exp_g2,2022.2.5,Win32,60.35367252,,,,,,,114,l2,f,se,na,audio/114.wav,,l2_f_se_na_114,,,,,,,image/jeans.png,image/sweatpants.png,sweatpants,rshift,,,,,,,lshift,0,2.6019,0,25,25,18,1,1,sweatpants,jeans,jeans,sweatpants,,,,,,,,,,,,,,,,,,,,,
006,001,2023-10-19_23h36.34.636,exp_g2,2022.2.5,Win32,60.35367252,,,,,,,120,l2,f,se,na,audio/120.wav,,l2_f_se_na_120,,,,,,,image/glasses.png,image/joycons.png,joycons,rshift,,,,,,,rshift,1,2.8045,0,26,26,24,1,1,joycons,glasses,glasses,joycons,,,,,,,,,,,,,,,,,,,,,
006,001,2023-10-19_23h36.34.636,exp_g2,2022.2.5,Win32,60.35367252,,,,,,,104,l2,f,en,na,audio/104.wav,,l2_f_en_na_104,,,,,,,image/shirt.png,image/bag.png,bag,rshift,,,,,,,rshift,1,2.2067,0,27,27,8,1,1,bag,shirt,shirt,bag,,,,,,,,,,,,,,,,,,,,,
006,001,2023-10-19_23h36.34.636,exp_g2,2022.2.5,Win32,60.35367252,,,,,,,159,l1,t,es,f0c,audio/159.wav,,l1_t_es_f0c_159,,,,,,,image/restaurant.png,image/hotel.png,restaurant,lshift,,,,,,,lshift,1,3.0736,0,28,28,53,1,1,restaurant,hotel,restaurant,hotel,,,,,,,,,,,,,,,,,,,,,
006,001,2023-10-19_23h36.34.636,exp_g2,2022.2.5,Win32,60.35367252,,,,,,,098,l2,f,en,na,audio/098.wav,,l2_f_en_na_098,,,,,,,image/man.png,image/woman.png,woman,rshift,,,,,,,rshift,1,2.2816,0,29,29,2,1,1,woman,man,man,woman,,,,,,,,,,,,,,,,,,,,,
006,001,2023-10-19_23h36.34.636,exp_g2,2022.2.5,Win32,60.35367252,,,,,,,151,l1,t,es,f0c,audio/151.wav,,l1_t_es_f0c_151,,,,,,,image/cat.png,image/flower.png,cat,lshift,,,,,,,lshift,1,2.5715,0,30,30,45,1,1,cat,flower,cat,flower,,,,,,,,,,,,,,,,,,,,,
006,001,2023-10-19_23h36.34.636,exp_g2,2022.2.5,Win32,60.35367252,,,,,,,121,l2,f,sp,na,audio/121.wav,,l2_f_sp_na_121,,,,,,,image/shoe.png,image/glasses.png,shoe,lshift,,,,,,,lshift,1,2.3771,0,31,31,25,1,1,shoe,glasses,shoe,glasses,,,,,,,,,,,,,,,,,,,,,
006,001,2023-10-19_23h36.34.636,exp_g2,2022.2.5,Win32,60.35367252,,,,,,,106,l2,f,en,na,audio/106.wav,,l2_f_en_na_106,,,,,,,image/wallet.png,image/computer.png,computer,rshift,,,,,,,rshift,1,2.8203,0,32,32,10,1,1,computer,wallet,wallet,computer,,,,,,,,,,,,,,,,,,,,,
006,001,2023-10-19_23h36.34.636,exp_g2,2022.2.5,Win32,60.35367252,,,,,,,102,l2,f,en,na,audio/102.wav,,l2_f_en_na_102,,,,,,,image/socks.png,image/book.png,books,rshift,,,,,,,rshift,1,2.5881,0,33,33,6,1,1,books,socks,socks,book,,,,,,,,,,,,,,,,,,,,,
006,001,2023-10-19_23h36.34.636,exp_g2,2022.2.5,Win32,60.35367252,,,,,,,107,l2,f,en,na,audio/107.wav,,l2_f_en_na_107,,,,,,,image/man.png,image/cat.png,man,lshift,,,,,,,lshift,1,2.8047,0,34,34,11,1,1,man,cat,man,cat,,,,,,,,,,,,,,,,,,,,,
006,001,2023-10-19_23h36.34.636,exp_g2,2022.2.5,Win32,60.35367252,,,,,,,108,l2,f,en,na,audio/108.wav,,l2_f_en_na_108,,,,,,,image/scarf.png,image/socks.png,socks,rshift,,,,,,,rshift,1,2.5935,0,35,35,12,1,1,socks,scarf,scarf,socks,,,,,,,,,,,,,,,,,,,,,
006,001,2023-10-19_23h36.34.636,exp_g2,2022.2.5,Win32,60.35367252,,,,,,,125,l2,f,sp,na,audio/125.wav,,l2_f_sp_na_125,,,,,,,image/desk.png,image/bottle.png,desk,lshift,,,,,,,lshift,1,2.7939,0,36,36,29,1,1,desk,bottle,desk,bottle,,,,,,,,,,,,,,,,,,,,,
006,001,2023-10-19_23h36.34.636,exp_g2,2022.2.5,Win32,60.35367252,,,,,,,118,l2,f,se,na,audio/118.wav,,l2_f_se_na_118,,,,,,,image/icecream.png,image/donut.png,donut,rshift,,,,,,,rshift,1,3.1365,0,37,37,22,1,1,donut,icecream,icecream,donut,,,,,,,,,,,,,,,,,,,,,
006,001,2023-10-19_23h36.34.636,exp_g2,2022.2.5,Win32,60.35367252,,,,,,,156,l1,t,es,f0c,audio/156.wav,,l1_t_es_f0c_156,,,,,,,image/city.png,image/village.png,village,rshift,,,,,,,rshift,1,3.4631,0,38,38,50,1,1,village,city,city,village,,,,,,,,,,,,,,,,,,,,,
006,001,2023-10-19_23h36.34.636,exp_g2,2022.2.5,Win32,60.35367252,,,,,,,030,l2,t,es,na,audio/030.wav,,l2_t_es_na_030,,,,,,,image/flipflops.png,image/boy.png,boy,rshift,,,,,,,rshift,1,3.879,0,39,39,44,1,1,boy,flipflops,flipflops,boy,,,,,,,,,,,,,,,,,,,,,
006,001,2023-10-19_23h36.34.636,exp_g2,2022.2.5,Win32,60.35367252,,,,,,,097,l2,f,en,na,audio/097.wav,,l2_f_en_na_097,,,,,,,image/ring.png,image/belt.png,ring,lshift,,,,,,,lshift,1,2.2997,0,40,40,1,1,1,ring,belt,ring,belt,,,,,,,,,,,,,,,,,,,,,
006,001,2023-10-19_23h36.34.636,exp_g2,2022.2.5,Win32,60.35367252,,,,,,,124,l2,f,sp,na,audio/124.wav,,l2_f_sp_na_124,,,,,,,image/bag.png,image/bed.png,bed,rshift,,,,,,,rshift,1,2.5764,0,41,41,28,1,1,bed,bag,bag,bed,,,,,,,,,,,,,,,,,,,,,
006,001,2023-10-19_23h36.34.636,exp_g2,2022.2.5,Win32,60.35367252,,,,,,,099,l2,f,en,na,audio/099.wav,,l2_f_en_na_099,,,,,,,image/dog.png,image/cat.png,dog,lshift,,,,,,,lshift,1,1.968,0,42,42,3,1,1,dog,cat,dog,cat,,,,,,,,,,,,,,,,,,,,,
006,001,2023-10-19_23h36.34.636,exp_g2,2022.2.5,Win32,60.35367252,,,,,,,128,l2,f,sp,na,audio/128.wav,,l2_f_sp_na_128,,,,,,,image/cups.png,image/kids.png,kids,rshift,,,,,,,rshift,1,2.1647,0,43,43,32,1,1,kids,cups,cups,kids,,,,,,,,,,,,,,,,,,,,,
006,001,2023-10-19_23h36.34.636,exp_g2,2022.2.5,Win32,60.35367252,,,,,,,103,l2,f,en,na,audio/103.wav,,l2_f_en_na_103,,,,,,,image/toys.png,image/sneakers.png,toys,lshift,,,,,,,lshift,1,2.1179,0,44,44,7,1,1,toys,sneakers,toys,sneakers,,,,,,,,,,,,,,,,,,,,,
006,001,2023-10-19_23h36.34.636,exp_g2,2022.2.5,Win32,60.35367252,,,,,,,027,l2,t,es,na,audio/027.wav,,l2_t_es_na_027,,,,,,,image/shirt.png,image/book.png,shirt,lshift,,,,,,,lshift,1,2.3653,0,45,45,41,1,1,shirt,book,shirt,book,,,,,,,,,,,,,,,,,,,,,
006,001,2023-10-19_23h36.34.636,exp_g2,2022.2.5,Win32,60.35367252,,,,,,,111,l2,f,se,na,audio/111.wav,,l2_f_se_na_111,,,,,,,image/mashedpotatoes.png,image/donut.png,mashedpotatoes,lshift,,,,,,,lshift,1,2.6789,0,46,46,15,1,1,mashedpotatoes,donut,mashedpotatoes,donut,,,,,,,,,,,,,,,,,,,,,
006,001,2023-10-19_23h36.34.636,exp_g2,2022.2.5,Win32,60.35367252,,,,,,,109,l2,f,en,na,audio/109.wav,,l2_f_en_na_109,,,,,,,image/fish.png,image/woman.png,fish,lshift,,,,,,,lshift,1,2.0239,0,47,47,13,1,1,fish,woman,fish,woman,,,,,,,,,,,,,,,,,,,,,
006,001,2023-10-19_23h36.34.636,exp_g2,2022.2.5,Win32,60.35367252,,,,,,,023,l2,t,es,na,audio/023.wav,,l2_t_es_na_023,,,,,,,image/wine.png,image/cellphone.png,wine,lshift,,,,,,,rshift,0,2.8278,0,48,48,37,1,1,wine,cellphone,wine,cellphone,,,,,,,,,,,,,,,,,,,,,
006,001,2023-10-19_23h36.34.636,exp_g2,2022.2.5,Win32,60.35367252,,,,,,,024,l2,t,es,na,audio/024.wav,,l2_t_es_na_024,,,,,,,image/bed.png,image/jug.png,jug,rshift,,,,,,,rshift,1,2.8472,0,49,49,38,1,1,jug,bed,bed,jug,,,,,,,,,,,,,,,,,,,,,
006,001,2023-10-19_23h36.34.636,exp_g2,2022.2.5,Win32,60.35367252,,,,,,,126,l2,f,sp,na,audio/126.wav,,l2_f_sp_na_126,,,,,,,image/backpack.png,image/key.png,key,rshift,,,,,,,lshift,0,2.7079,0,50,50,30,1,1,key,backpack,backpack,key,,,,,,,,,,,,,,,,,,,,,
006,001,2023-10-19_23h36.34.636,exp_g2,2022.2.5,Win32,60.35367252,,,,,,,110,l2,f,en,na,audio/110.wav,,l2_f_en_na_110,,,,,,,image/dog.png,image/cat.png,cat,rshift,,,,,,,rshift,1,2.5982,0,51,51,14,1,1,cat,dog,dog,cat,,,,,,,,,,,,,,,,,,,,,
006,001,2023-10-19_23h36.34.636,exp_g2,2022.2.5,Win32,60.35367252,,,,,,,096,l2,f,en,na,audio/096.wav,,l2_f_en_na_096,,,,,,,image/woman.png,image/cat.png,cat,rshift,,,,,,,rshift,1,2.0859,0,52,52,0,1,1,cat,woman,woman,cat,../image/,,,,,,,,,,,,,,,,,,,,
006,001,2023-10-19_23h36.34.636,exp_g2,2022.2.5,Win32,60.35367252,,,,,,,113,l2,f,se,na,audio/113.wav,,l2_f_se_na_113,,,,,,,image/loafers.png,image/sneakers.png,loafers,lshift,,,,,,,rshift,0,2.177,0,53,53,17,1,1,loafers,sneakers,loafers,sneakers,,,,,,,,,,,,,,,,,,,,,
006,001,2023-10-19_23h36.34.636,exp_g2,2022.2.5,Win32,60.35367252,,,,,,,129,l2,f,sp,na,audio/129.wav,,l2_f_sp_na_129,,,,,,,image/bag.png,image/chair.png,bag,lshift,,,,,,,lshift,1,3.4986,0,54,54,33,1,1,bag,chair,bag,chair,,,,,,,,,,,,,,,,,,,,,
006,001,2023-10-19_23h36.34.636,exp_g2,2022.2.5,Win32,60.35367252,,,,,,,,,,,,,,,,,,,,,,,,,,,,,,,,,,,,,,,,,,,,,,,,,,,,,,,,,,,,,,,,
006,001,2023-10-19_23h36.34.636,exp_g2,2022.2.5,Win32,60.35367252,,,,,,,tr1,lt,tr,en,na,practice_trial/audio/tr1.wav,Where are your kids?,lt_tr_en_na_tr1,-,-,-,-,-,-,image/america.png,image/spain.png,,,,,,,,,,,,,,,,,,,,,,,"[""lshift"",""lshift""]","[2.2351999999284544,4.885299999952338]",0,0,0,0,1,,,,,,,,,,,,,
006,001,2023-10-19_23h36.34.636,exp_g2,2022.2.5,Win32,60.35367252,,,,,,,tr2,lt,tr,en,na,practice_trial/audio/tr2.wav,Who is buying my car?,lt_tr_en_na_tr2,-,-,-,-,-,-,image/america.png,image/spain.png,,,,,,,,,,,,,,,,,,,,,,,"[""lshift"",""lshift"",""lshift""]","[2.4327999999522945,3.6795000000000186,4.896100000023807]",0,1,1,1,1,,,,,,,,,,,,,
006,001,2023-10-19_23h36.34.636,exp_g2,2022.2.5,Win32,60.35367252,,,,,,,tr3,lt,tr,sp,na,practice_trial/audio/tr3.wav,¿Dónde está mi perro?,lt_tr_sp_na_tr3,-,-,-,-,-,-,image/america.png,image/spain.png,,,,,,,,,,,,,,,,,,,,,,,,,0,2,2,2,1,,,,,,,,,,,,,
006,001,2023-10-19_23h36.34.636,exp_g2,2022.2.5,Win32,60.35367252,,,,,,,tr4,lt,tr,sp,na,practice_trial/audio/tr4.wav,¿De quién es la bolsa?,lt_tr_sp_na_tr4,-,-,-,-,-,-,image/america.png,image/spain.png,,,,,,,,,,,,,,,,,,,,,,,,,0,3,3,3,1,,,,,,,,,,,,,
006,001,2023-10-19_23h36.34.636,exp_g2,2022.2.5,Win32,60.35367252,,,,,,,tr5,lt,tr,se,na,practice_trial/audio/tr5.wav,¿Dónde encontraste sus donuts?,lt_tr_se_na_tr5,-,-,-,-,-,-,image/america.png,image/spain.png,,,,,,,,,,,,,,,,,,,,,,,,,0,4,4,4,1,,,,,,,,,,,,,
006,001,2023-10-19_23h36.34.636,exp_g2,2022.2.5,Win32,60.35367252,,,,,,,tr6,lt,tr,se,na,practice_trial/audio/tr6.wav,¿Cuándo compraste tu sweater?,lt_tr_se_na_tr6,-,-,-,-,-,-,image/america.png,image/spain.png,,,,,,,,,,,,,,,,,,,,,,,,,0,5,5,5,1,,,,,,,,,,,,,
006,001,2023-10-19_23h36.34.636,exp_g2,2022.2.5,Win32,60.35367252,,,,,,,tr7,lt,tr,es,na,practice_trial/audio/tr7.wav,Why do you have my camisa?,lt_tr_es_na_tr7,-,-,-,-,-,-,image/america.png,image/spain.png,,,,,,,,,,,,,,,,,,,,,,,,,0,6,6,6,1,,,,,,,,,,,,,
006,001,2023-10-19_23h36.34.636,exp_g2,2022.2.5,Win32,60.35367252,,,,,,,tr8,lt,tr,es,na,practice_trial/audio/tr8.wav,Where did you find his chanclas?,lt_tr_es_na_tr8,-,-,-,-,-,-,image/america.png,image/spain.png,,,,,,,,,,,,,,,,,,,,,,,,,0,7,7,7,1,,,,,,,,,,,,,
006,001,2023-10-19_23h36.34.636,exp_g2,2022.2.5,Win32,60.35367252,,,,,,,,,,,,,,,,,,,,,,,,,,,,,,,,,,,,,,,,,,,,,,,,,,,,0,0,0,0,1,,,,,,,,
006,001,2023-10-19_23h36.34.636,exp_g2,2022.2.5,Win32,60.35367252,,,,,,,tr1,lt,tr,en,na,practice_trial/audio/tr1.wav,Where are your kids?,lt_tr_en_na_tr1,-,-,-,-,-,-,image/america.png,image/spain.png,,,,,,,,,,,,,,,,,,,,,,,"[""lshift""]",[2.823399999976175],0,0,0,0,1,,,,,,,,,,,,,
006,001,2023-10-19_23h36.34.636,exp_g2,2022.2.5,Win32,60.35367252,,,,,,,tr2,lt,tr,en,na,practice_trial/audio/tr2.wav,Who is buying my car?,lt_tr_en_na_tr2,-,-,-,-,-,-,image/america.png,image/spain.png,,,,,,,,,,,,,,,,,,,,,,,"[""lshift""]",[2.299399999976174],0,1,1,1,1,,,,,,,,,,,,,
006,001,2023-10-19_23h36.34.636,exp_g2,2022.2.5,Win32,60.35367252,,,,,,,tr3,lt,tr,sp,na,practice_trial/audio/tr3.wav,¿Dónde está mi perro?,lt_tr_sp_na_tr3,-,-,-,-,-,-,image/america.png,image/spain.png,,,,,,,,,,,,,,,,,,,,,,,"[""rshift""]",[2.7067000000477037],0,2,2,2,1,,,,,,,,,,,,,
006,001,2023-10-19_23h36.34.636,exp_g2,2022.2.5,Win32,60.35367252,,,,,,,tr4,lt,tr,sp,na,practice_trial/audio/tr4.wav,¿De quién es la bolsa?,lt_tr_sp_na_tr4,-,-,-,-,-,-,image/america.png,image/spain.png,,,,,,,,,,,,,,,,,,,,,,,"[""rshift""]",[2.465600000023869],0,3,3,3,1,,,,,,,,,,,,,
006,001,2023-10-19_23h36.34.636,exp_g2,2022.2.5,Win32,60.35367252,,,,,,,tr5,lt,tr,se,na,practice_trial/audio/tr5.wav,¿Dónde encontraste sus donuts?,lt_tr_se_na_tr5,-,-,-,-,-,-,image/america.png,image/spain.png,,,,,,,,,,,,,,,,,,,,,,,"[""rshift"",""lshift""]","[3.232899999976155,3.7811999999284467]",0,4,4,4,1,,,,,,,,,,,,,
006,001,2023-10-19_23h36.34.636,exp_g2,2022.2.5,Win32,60.35367252,,,,,,,tr6,lt,tr,se,na,practice_trial/audio/tr6.wav,¿Cuándo compraste tu sweater?,lt_tr_se_na_tr6,-,-,-,-,-,-,image/america.png,image/spain.png,,,,,,,,,,,,,,,,,,,,,,,"[""lshift"",""rshift"",""lshift""]","[3.3644000000953724,3.8317000000477037,4.530600000023867]",0,5,5,5,1,,,,,,,,,,,,,
006,001,2023-10-19_23h36.34.636,exp_g2,2022.2.5,Win32,60.35367252,,,,,,,tr7,lt,tr,es,na,practice_trial/audio/tr7.wav,Why do you have my camisa?,lt_tr_es_na_tr7,-,-,-,-,-,-,image/america.png,image/spain.png,,,,,,,,,,,,,,,,,,,,,,,"[""lshift"",""rshift""]","[1.9354999999999905,2.5639999999999645]",0,6,6,6,1,,,,,,,,,,,,,
006,001,2023-10-19_23h36.34.636,exp_g2,2022.2.5,Win32,60.35367252,,,,,,,tr8,lt,tr,es,na,practice_trial/audio/tr8.wav,Where did you find his chanclas?,lt_tr_es_na_tr8,-,-,-,-,-,-,image/america.png,image/spain.png,,,,,,,,,,,,,,,,,,,,,,,"[""rshift"",""lshift"",""lshift""]","[2.9479000000953874,3.881300000071519,4.382400000095345]",0,7,7,7,1,,,,,,,,,,,,,
006,001,2023-10-19_23h36.34.636,exp_g2,2022.2.5,Win32,60.35367252,,,,,,,,,,,,,,,,,,,,,,,,,,,,,,,,,,,,,,,,,,,,,,,,,,,,1,0,1,0,1,,,,,,,,
006,001,2023-10-19_23h36.34.636,exp_g2,2022.2.5,Win32,60.35367252,,,,,,,tr1,lt,tr,en,na,practice_trial/audio/tr1.wav,Where are your kids?,lt_tr_en_na_tr1,-,-,-,-,-,-,image/america.png,image/spain.png,,,,,,,,,,,,,,,,,,,,,,,"[""lshift"",""lshift""]","[2.532299999952329,2.965600000023869]",0,0,0,0,1,,,,,,,,,,,,,
006,001,2023-10-19_23h36.34.636,exp_g2,2022.2.5,Win32,60.35367252,,,,,,,tr2,lt,tr,en,na,practice_trial/audio/tr2.wav,Who is buying my car?,lt_tr_en_na_tr2,-,-,-,-,-,-,image/america.png,image/spain.png,,,,,,,,,,,,,,,,,,,,,,,,,0,1,1,1,1,,,,,,,,,,,,,
006,001,2023-10-19_23h36.34.636,exp_g2,2022.2.5,Win32,60.35367252,,,,,,,tr3,lt,tr,sp,na,practice_trial/audio/tr3.wav,¿Dónde está mi perro?,lt_tr_sp_na_tr3,-,-,-,-,-,-,image/america.png,image/spain.png,,,,,,,,,,,,,,,,,,,,,,,,,0,2,2,2,1,,,,,,,,,,,,,
006,001,2023-10-19_23h36.34.636,exp_g2,2022.2.5,Win32,60.35367252,,,,,,,tr4,lt,tr,sp,na,practice_trial/audio/tr4.wav,¿De quién es la bolsa?,lt_tr_sp_na_tr4,-,-,-,-,-,-,image/america.png,image/spain.png,,,,,,,,,,,,,,,,,,,,,,,,,0,3,3,3,1,,,,,,,,,,,,,
006,001,2023-10-19_23h36.34.636,exp_g2,2022.2.5,Win32,60.35367252,,,,,,,tr5,lt,tr,se,na,practice_trial/audio/tr5.wav,¿Dónde encontraste sus donuts?,lt_tr_se_na_tr5,-,-,-,-,-,-,image/america.png,image/spain.png,,,,,,,,,,,,,,,,,,,,,,,,,0,4,4,4,1,,,,,,,,,,,,,
006,001,2023-10-19_23h36.34.636,exp_g2,2022.2.5,Win32,60.35367252,,,,,,,tr6,lt,tr,se,na,practice_trial/audio/tr6.wav,¿Cuándo compraste tu sweater?,lt_tr_se_na_tr6,-,-,-,-,-,-,image/america.png,image/spain.png,,,,,,,,,,,,,,,,,,,,,,,,,0,5,5,5,1,,,,,,,,,,,,,
006,001,2023-10-19_23h36.34.636,exp_g2,2022.2.5,Win32,60.35367252,,,,,,,tr7,lt,tr,es,na,practice_trial/audio/tr7.wav,Why do you have my camisa?,lt_tr_es_na_tr7,-,-,-,-,-,-,image/america.png,image/spain.png,,,,,,,,,,,,,,,,,,,,,,,,,0,6,6,6,1,,,,,,,,,,,,,
006,001,2023-10-19_23h36.34.636,exp_g2,2022.2.5,Win32,60.35367252,,,,,,,tr8,lt,tr,es,na,practice_trial/audio/tr8.wav,Where did you find his chanclas?,lt_tr_es_na_tr8,-,-,-,-,-,-,image/america.png,image/spain.png,,,,,,,,,,,,,,,,,,,,,,,,,0,7,7,7,1,,,,,,,,,,,,,
006,001,2023-10-19_23h36.34.636,exp_g2,2022.2.5,Win32,60.35367252,,,,,,,,,,,,,,,,,,,,,,,,,,,,,,,,,,,,,,,,,,,,,,,,,,,,2,0,2,0,1,,,,,,,,
006,001,2023-10-19_23h36.34.636,exp_g2,2022.2.5,Win32,60.35367252,,,,,,,tr1,lt,tr,en,na,practice_trial/audio/tr1.wav,Where are your kids?,lt_tr_en_na_tr1,-,-,-,-,-,-,image/america.png,image/spain.png,,,,,,,,,,,,,,,,,,,,,,,"[""lshift""]",[3.078000000000088],0,0,0,0,1,,,,,,,,,,,,,
006,001,2023-10-19_23h36.34.636,exp_g2,2022.2.5,Win32,60.35367252,,,,,,,tr2,lt,tr,en,na,practice_trial/audio/tr2.wav,Who is buying my car?,lt_tr_en_na_tr2,-,-,-,-,-,-,image/america.png,image/spain.png,,,,,,,,,,,,,,,,,,,,,,,"[""lshift""]",[2.465600000023869],0,1,1,1,1,,,,,,,,,,,,,
006,001,2023-10-19_23h36.34.636,exp_g2,2022.2.5,Win32,60.35367252,,,,,,,tr3,lt,tr,sp,na,practice_trial/audio/tr3.wav,¿Dónde está mi perro?,lt_tr_sp_na_tr3,-,-,-,-,-,-,image/america.png,image/spain.png,,,,,,,,,,,,,,,,,,,,,,,"[""rshift""]",[2.1326000000237855],0,2,2,2,1,,,,,,,,,,,,,
006,001,2023-10-19_23h36.34.636,exp_g2,2022.2.5,Win32,60.35367252,,,,,,,tr4,lt,tr,sp,na,practice_trial/audio/tr4.wav,¿De quién es la bolsa?,lt_tr_sp_na_tr4,-,-,-,-,-,-,image/america.png,image/spain.png,,,,,,,,,,,,,,,,,,,,,,,"[""rshift""]",[2.1363000000715147],0,3,3,3,1,,,,,,,,,,,,,
006,001,2023-10-19_23h36.34.636,exp_g2,2022.2.5,Win32,60.35367252,,,,,,,tr5,lt,tr,se,na,practice_trial/audio/tr5.wav,¿Dónde encontraste sus donuts?,lt_tr_se_na_tr5,-,-,-,-,-,-,image/america.png,image/spain.png,,,,,,,,,,,,,,,,,,,,,,,"[""rshift"",""lshift""]","[2.3156999999284835,3.0171999999284935]",0,4,4,4,1,,,,,,,,,,,,,
006,001,2023-10-19_23h36.34.636,exp_g2,2022.2.5,Win32,60.35367252,,,,,,,tr6,lt,tr,se,na,practice_trial/audio/tr6.wav,¿Cuándo compraste tu sweater?,lt_tr_se_na_tr6,-,-,-,-,-,-,image/america.png,image/spain.png,,,,,,,,,,,,,,,,,,,,,,,"[""rshift"",""lshift""]","[2.462399999976128,2.784099999904697]",0,5,5,5,1,,,,,,,,,,,,,
006,001,2023-10-19_23h36.34.636,exp_g2,2022.2.5,Win32,60.35367252,,,,,,,tr7,lt,tr,es,na,practice_trial/audio/tr7.wav,Why do you have my camisa?,lt_tr_es_na_tr7,-,-,-,-,-,-,image/america.png,image/spain.png,,,,,,,,,,,,,,,,,,,,,,,"[""lshift"",""rshift""]","[2.265800000071522,2.6157000000476955]",0,6,6,6,1,,,,,,,,,,,,,
006,001,2023-10-19_23h36.34.636,exp_g2,2022.2.5,Win32,60.35367252,,,,,,,tr8,lt,tr,es,na,practice_trial/audio/tr8.wav,Where did you find his chanclas?,lt_tr_es_na_tr8,-,-,-,-,-,-,image/america.png,image/spain.png,,,,,,,,,,,,,,,,,,,,,,,"[""lshift"",""rshift""]","[3.347899999976221,3.4977000000477574]",0,7,7,7,1,,,,,,,,,,,,,
006,001,2023-10-19_23h36.34.636,exp_g2,2022.2.5,Win32,60.35367252,,,,,,,,,,,,,,,,,,,,,,,,,,,,,,,,,,,,,,,,,,,,,,,,,,,,,,,,,,,,,,,,
006,001,2023-10-19_23h36.34.636,exp_g2,2022.2.5,Win32,60.35367252,,,,,,,066,l1,f,en,na,audio/066.wav,,l1_f_en_na_066,,,,,,,image/america.png,image/spain.png,,,,,,,,,,,,,,,,,2,america,spain,,,,,,,,,,,,,,,,"[""lshift""]",[3.194799999952238],0,0,0,5,1,
006,001,2023-10-19_23h36.34.636,exp_g2,2022.2.5,Win32,60.35367252,,,,,,,144,l2,t,es,f0u,audio/144.wav,,l2_t_es_f0u_144,,,,,,,image/america.png,image/spain.png,,,,,,,,,,,,,,,,,2,america,spain,,,,,,,,,,,,,,,,"[""lshift""]",[4.048600000023839],0,1,1,48,1,1
006,001,2023-10-19_23h36.34.636,exp_g2,2022.2.5,Win32,60.35367252,,,,,,,017,l1,t,es,na,audio/017.wav,,l1_t_es_na_017,,,,,,,image/america.png,image/spain.png,,,,,,,,,,,,,,,,,2,america,spain,,,,,,,,,,,,,,,,"[""lshift"",""rshift""]","[2.598799999952348,3.0822999999523972]",0,2,2,41,1,1
006,001,2023-10-19_23h36.34.636,exp_g2,2022.2.5,Win32,60.35367252,,,,,,,067,l1,f,en,na,audio/067.wav,,l1_f_en_na_067,,,,,,,image/america.png,image/spain.png,,,,,,,,,,,,,,,,,2,america,spain,,,,,,,,,,,,,,,,"[""lshift""]",[2.749600000023861],0,3,3,6,1,
006,001,2023-10-19_23h36.34.636,exp_g2,2022.2.5,Win32,60.35367252,,,,,,,142,l2,t,es,f0u,audio/142.wav,,l2_t_es_f0u_142,,,,,,,image/america.png,image/spain.png,,,,,,,,,,,,,,,,,2,america,spain,,,,,,,,,,,,,,,,"[""lshift"",""rshift""]","[2.9642999999523454,3.18129999995233]",0,4,4,46,1,1
006,001,2023-10-19_23h36.34.636,exp_g2,2022.2.5,Win32,60.35367252,,,,,,,087,l1,f,sp,na,audio/087.wav,,l1_f_sp_na_087,,,,,,,image/america.png,image/spain.png,,,,,,,,,,,,,,,,,2,america,spain,,,,,,,,,,,,,,,,"[""lshift"",""rshift""]","[2.549100000023941,2.8465000000001055]",0,5,5,26,1,
006,001,2023-10-19_23h36.34.636,exp_g2,2022.2.5,Win32,60.35367252,,,,,,,089,l1,f,sp,na,audio/089.wav,,l1_f_sp_na_089,,,,,,,image/america.png,image/spain.png,,,,,,,,,,,,,,,,,2,america,spain,,,,,,,,,,,,,,,,"[""rshift""]",[1.835400000095433],0,6,6,28,1,
006,001,2023-10-19_23h36.34.636,exp_g2,2022.2.5,Win32,60.35367252,,,,,,,077,l1,f,se,na,audio/077.wav,,l1_f_se_na_077,,,,,,,image/america.png,image/spain.png,,,,,,,,,,,,,,,,,2,america,spain,,,,,,,,,,,,,,,,"[""rshift"",""lshift""]","[2.353600000023903,2.5278000000715792]",0,7,7,16,1,1
006,001,2023-10-19_23h36.34.636,exp_g2,2022.2.5,Win32,60.35367252,,,,,,,072,l1,f,en,na,audio/072.wav,,l1_f_en_na_072,,,,,,,image/america.png,image/spain.png,,,,,,,,,,,,,,,,,2,america,spain,,,,,,,,,,,,,,,,"[""lshift""]",[2.189999999999941],0,8,8,11,1,
006,001,2023-10-19_23h36.34.636,exp_g2,2022.2.5,Win32,60.35367252,,,,,,,061,l1,f,en,na,audio/061.wav,,l1_f_en_na_061,,,,,,,image/america.png,image/spain.png,,,,,,,,,,,,,,,,,2,america,spain,,,,,,,,,,,,,,,,"[""lshift""]",[2.5651000000239037],0,9,9,0,1,
006,001,2023-10-19_23h36.34.636,exp_g2,2022.2.5,Win32,60.35367252,,,,,,,062,l1,f,en,na,audio/062.wav,,l1_f_en_na_062,,,,,,,image/america.png,image/spain.png,,,,,,,,,,,,,,,,,2,america,spain,,,,,,,,,,,,,,,,"[""lshift""]",[2.2992999999523818],0,10,10,1,1,
006,001,2023-10-19_23h36.34.636,exp_g2,2022.2.5,Win32,60.35367252,,,,,,,070,l1,f,en,na,audio/070.wav,,l1_f_en_na_070,,,,,,,image/america.png,image/spain.png,,,,,,,,,,,,,,,,,2,america,spain,,,,,,,,,,,,,,,,"[""lshift""]",[2.632100000023911],0,11,11,9,1,
006,001,2023-10-19_23h36.34.636,exp_g2,2022.2.5,Win32,60.35367252,,,,,,,079,l1,f,se,na,audio/079.wav,,l1_f_se_na_079,,,,,,,image/america.png,image/spain.png,,,,,,,,,,,,,,,,,2,america,spain,,,,,,,,,,,,,,,,"[""rshift""]",[3.4811999999284353],0,12,12,18,1,1
006,001,2023-10-19_23h36.34.636,exp_g2,2022.2.5,Win32,60.35367252,,,,,,,082,l1,f,se,na,audio/082.wav,,l1_f_se_na_082,,,,,,,image/america.png,image/spain.png,,,,,,,,,,,,,,,,,2,america,spain,,,,,,,,,,,,,,,,"[""lshift"",""rshift""]","[2.9633999999761045,3.246899999976108]",0,13,13,21,1,1
006,001,2023-10-19_23h36.34.636,exp_g2,2022.2.5,Win32,60.35367252,,,,,,,091,l1,f,sp,na,audio/091.wav,,l1_f_sp_na_091,,,,,,,image/america.png,image/spain.png,,,,,,,,,,,,,,,,,2,america,spain,,,,,,,,,,,,,,,,"[""rshift""]",[2.1965000000000146],0,14,14,30,1,
006,001,2023-10-19_23h36.34.636,exp_g2,2022.2.5,Win32,60.35367252,,,,,,,090,l1,f,sp,na,audio/090.wav,,l1_f_sp_na_090,,,,,,,image/america.png,image/spain.png,,,,,,,,,,,,,,,,,2,america,spain,,,,,,,,,,,,,,,,"[""rshift""]",[2.231700000047681],0,15,15,29,1,
006,001,2023-10-19_23h36.34.636,exp_g2,2022.2.5,Win32,60.35367252,,,,,,,074,l1,f,en,na,audio/074.wav,,l1_f_en_na_074,,,,,,,image/america.png,image/spain.png,,,,,,,,,,,,,,,,,2,america,spain,,,,,,,,,,,,,,,,"[""lshift""]",[2.4612999999523026],0,16,16,13,1,
006,001,2023-10-19_23h36.34.636,exp_g2,2022.2.5,Win32,60.35367252,,,,,,,063,l1,f,en,na,audio/063.wav,,l1_f_en_na_063,,,,,,,image/america.png,image/spain.png,,,,,,,,,,,,,,,,,2,america,spain,,,,,,,,,,,,,,,,"[""lshift""]",[1.9656999999284608],0,17,17,2,1,
006,001,2023-10-19_23h36.34.636,exp_g2,2022.2.5,Win32,60.35367252,,,,,,,094,l1,f,sp,na,audio/094.wav,,l1_f_sp_na_094,,,,,,,image/america.png,image/spain.png,,,,,,,,,,,,,,,,,2,america,spain,,,,,,,,,,,,,,,,"[""rshift""]",[3.030700000047659],0,18,18,33,1,
006,001,2023-10-19_23h36.34.636,exp_g2,2022.2.5,Win32,60.35367252,,,,,,,143,l2,t,es,f0u,audio/143.wav,,l2_t_es_f0u_143,,,,,,,image/america.png,image/spain.png,,,,,,,,,,,,,,,,,2,america,spain,,,,,,,,,,,,,,,,"[""lshift""]",[2.958899999976097],0,19,19,47,1,1
006,001,2023-10-19_23h36.34.636,exp_g2,2022.2.5,Win32,60.35367252,,,,,,,150,l2,t,es,f0u,audio/150.wav,,l2_t_es_f0u_150,,,,,,,image/america.png,image/spain.png,,,,,,,,,,,,,,,,,2,america,spain,,,,,,,,,,,,,,,,"[""lshift"",""rshift""]","[2.8138999999761154,3.6121000000238155]",0,20,20,54,1,1
006,001,2023-10-19_23h36.34.636,exp_g2,2022.2.5,Win32,60.35367252,,,,,,,141,l2,t,es,f0u,audio/141.wav,,l2_t_es_f0u_141,,,,,,,image/america.png,image/spain.png,,,,,,,,,,,,,,,,,2,america,spain,,,,,,,,,,,,,,,,"[""lshift""]",[2.4662000000477065],0,21,21,45,1,1
006,001,2023-10-19_23h36.34.636,exp_g2,2022.2.5,Win32,60.35367252,,,,,,,095,l1,f,sp,na,audio/095.wav,,l1_f_sp_na_095,,,,,,,image/america.png,image/spain.png,,,,,,,,,,,,,,,,,2,america,spain,,,,,,,,,,,,,,,,"[""rshift""]",[2.764499999999998],0,22,22,34,1,
006,001,2023-10-19_23h36.34.636,exp_g2,2022.2.5,Win32,60.35367252,,,,,,,086,l1,f,sp,na,audio/086.wav,,l1_f_sp_na_086,,,,,,,image/america.png,image/spain.png,,,,,,,,,,,,,,,,,2,america,spain,,,,,,,,,,,,,,,,"[""rshift""]",[2.6891000000238137],0,23,23,25,1,
006,001,2023-10-19_23h36.34.636,exp_g2,2022.2.5,Win32,60.35367252,,,,,,,014,l1,t,es,na,audio/014.wav,,l1_t_es_na_014,,,,,,,image/america.png,image/spain.png,,,,,,,,,,,,,,,,,2,america,spain,,,,,,,,,,,,,,,,"[""lshift""]",[2.94919999992851],0,24,24,38,1,1
006,001,2023-10-19_23h36.34.636,exp_g2,2022.2.5,Win32,60.35367252,,,,,,,149,l2,t,es,f0u,audio/149.wav,,l2_t_es_f0u_149,,,,,,,image/america.png,image/spain.png,,,,,,,,,,,,,,,,,2,america,spain,,,,,,,,,,,,,,,,"[""lshift"",""rshift""]","[2.5157999999522644,2.91339999997615]",0,25,25,53,1,1
006,001,2023-10-19_23h36.34.636,exp_g2,2022.2.5,Win32,60.35367252,,,,,,,146,l2,t,es,f0u,audio/146.wav,,l2_t_es_f0u_146,,,,,,,image/america.png,image/spain.png,,,,,,,,,,,,,,,,,2,america,spain,,,,,,,,,,,,,,,,"[""lshift"",""rshift""]","[2.257399999976201,3.1900000000001683]",0,26,26,50,1,1
006,001,2023-10-19_23h36.34.636,exp_g2,2022.2.5,Win32,60.35367252,,,,,,,020,l1,t,es,na,audio/020.wav,,l1_t_es_na_020,,,,,,,image/america.png,image/spain.png,,,,,,,,,,,,,,,,,2,america,spain,,,,,,,,,,,,,,,,"[""lshift""]",[4.7805999999045525],0,27,27,44,1,1
006,001,2023-10-19_23h36.34.636,exp_g2,2022.2.5,Win32,60.35367252,,,,,,,093,l1,f,sp,na,audio/093.wav,,l1_f_sp_na_093,,,,,,,image/america.png,image/spain.png,,,,,,,,,,,,,,,,,2,america,spain,,,,,,,,,,,,,,,,"[""rshift""]",[3.11489999997616],0,28,28,32,1,
006,001,2023-10-19_23h36.34.636,exp_g2,2022.2.5,Win32,60.35367252,,,,,,,019,l1,t,es,na,audio/019.wav,,l1_t_es_na_019,,,,,,,image/america.png,image/spain.png,,,,,,,,,,,,,,,,,2,america,spain,,,,,,,,,,,,,,,,"[""lshift"",""lshift"",""lshift""]","[4.328999999999951,4.6124999999999545,4.795300000071393]",0,29,29,43,1,1
006,001,2023-10-19_23h36.34.636,exp_g2,2022.2.5,Win32,60.35367252,,,,,,,145,l2,t,es,f0u,audio/145.wav,,l2_t_es_f0u_145,,,,,,,image/america.png,image/spain.png,,,,,,,,,,,,,,,,,2,america,spain,,,,,,,,,,,,,,,,"[""lshift"",""lshift"",""lshift"",""lshift"",""rshift"",""lshift""]","[-0.29720000004772373,0.06850000000008549,0.4520999999047035,0.752099999904658,2.63209999990454,4.947099999904594]",0,30,30,49,1,1
006,001,2023-10-19_23h36.34.636,exp_g2,2022.2.5,Win32,60.35367252,,,,,,,068,l1,f,en,na,audio/068.wav,,l1_f_en_na_068,,,,,,,image/america.png,image/spain.png,,,,,,,,,,,,,,,,,2,america,spain,,,,,,,,,,,,,,,,"[""lshift"",""lshift"",""lshift"",""lshift""]","[0.21710000002371999,0.8666000000239364,1.83270000004768,2.4328999999761436]",0,31,31,7,1,
006,001,2023-10-19_23h36.34.636,exp_g2,2022.2.5,Win32,60.35367252,,,,,,,013,l1,t,es,na,audio/013.wav,,l1_t_es_na_013,,,,,,,image/america.png,image/spain.png,,,,,,,,,,,,,,,,,2,america,spain,,,,,,,,,,,,,,,,"[""lshift"",""rshift""]","[3.064600000023802,3.3804999999999836]",0,32,32,37,1,1
006,001,2023-10-19_23h36.34.636,exp_g2,2022.2.5,Win32,60.35367252,,,,,,,071,l1,f,en,na,audio/071.wav,,l1_f_en_na_071,,,,,,,image/america.png,image/spain.png,,,,,,,,,,,,,,,,,2,america,spain,,,,,,,,,,,,,,,,"[""lshift""]",[3.3968999999760854],0,33,33,10,1,
006,001,2023-10-19_23h36.34.636,exp_g2,2022.2.5,Win32,60.35367252,,,,,,,088,l1,f,sp,na,audio/088.wav,,l1_f_sp_na_088,,,,,,,image/america.png,image/spain.png,,,,,,,,,,,,,,,,,2,america,spain,,,,,,,,,,,,,,,,"[""rshift""]",[2.6651000000238128],0,34,34,27,1,
006,001,2023-10-19_23h36.34.636,exp_g2,2022.2.5,Win32,60.35367252,,,,,,,092,l1,f,sp,na,audio/092.wav,,l1_f_sp_na_092,,,,,,,image/america.png,image/spain.png,,,,,,,,,,,,,,,,,2,america,spain,,,,,,,,,,,,,,,,"[""rshift""]",[2.3652000000477074],0,35,35,31,1,
006,001,2023-10-19_23h36.34.636,exp_g2,2022.2.5,Win32,60.35367252,,,,,,,081,l1,f,se,na,audio/081.wav,,l1_f_se_na_081,,,,,,,image/america.png,image/spain.png,,,,,,,,,,,,,,,,,2,america,spain,,,,,,,,,,,,,,,,"[""rshift"",""lshift""]","[1.8171999999285617,3.069600000023911]",0,36,36,20,1,1
006,001,2023-10-19_23h36.34.636,exp_g2,2022.2.5,Win32,60.35367252,,,,,,,073,l1,f,en,na,audio/073.wav,,l1_f_en_na_073,,,,,,,image/america.png,image/spain.png,,,,,,,,,,,,,,,,,2,america,spain,,,,,,,,,,,,,,,,"[""lshift""]",[2.771700000047531],0,37,37,12,1,
006,001,2023-10-19_23h36.34.636,exp_g2,2022.2.5,Win32,60.35367252,,,,,,,083,l1,f,se,na,audio/083.wav,,l1_f_se_na_083,,,,,,,image/america.png,image/spain.png,,,,,,,,,,,,,,,,,2,america,spain,,,,,,,,,,,,,,,,"[""rshift"",""lshift"",""rshift""]","[3.3132000000475728,3.4823999999762236,3.7638000000715692]",0,38,38,22,1,1
006,001,2023-10-19_23h36.34.636,exp_g2,2022.2.5,Win32,60.35367252,,,,,,,078,l1,f,se,na,audio/078.wav,,l1_f_se_na_078,,,,,,,image/america.png,image/spain.png,,,,,,,,,,,,,,,,,2,america,spain,,,,,,,,,,,,,,,,"[""rshift"",""lshift""]","[3.07189999997604,3.2474999999999454]",0,39,39,17,1,1
006,001,2023-10-19_23h36.34.636,exp_g2,2022.2.5,Win32,60.35367252,,,,,,,085,l1,f,se,na,audio/085.wav,,l1_f_se_na_085,,,,,,,image/america.png,image/spain.png,,,,,,,,,,,,,,,,,2,america,spain,,,,,,,,,,,,,,,,"[""rshift"",""lshift""]","[2.5401000000238128,3.125899999976127]",0,40,40,24,1,1
006,001,2023-10-19_23h36.34.636,exp_g2,2022.2.5,Win32,60.35367252,,,,,,,011,l1,t,es,na,audio/011.wav,,l1_t_es_na_011,,,,,,,image/america.png,image/spain.png,,,,,,,,,,,,,,,,,2,america,spain,,,,,,,,,,,,,,,,"[""lshift""]",[3.9300000000000637],0,41,41,35,1,1
006,001,2023-10-19_23h36.34.636,exp_g2,2022.2.5,Win32,60.35367252,,,,,,,084,l1,f,se,na,audio/084.wav,,l1_f_se_na_084,,,,,,,image/america.png,image/spain.png,,,,,,,,,,,,,,,,,2,america,spain,,,,,,,,,,,,,,,,"[""rshift"",""lshift""]","[3.0815000000000055,3.2343999999761763]",0,42,42,23,1,1
006,001,2023-10-19_23h36.34.636,exp_g2,2022.2.5,Win32,60.35367252,,,,,,,012,l1,t,es,na,audio/012.wav,,l1_t_es_na_012,,,,,,,image/america.png,image/spain.png,,,,,,,,,,,,,,,,,2,america,spain,,,,,,,,,,,,,,,,"[""lshift"",""rshift""]","[3.247000000000071,3.4292000000477856]",0,43,43,36,1,1
006,001,2023-10-19_23h36.34.636,exp_g2,2022.2.5,Win32,60.35367252,,,,,,,075,l1,f,en,na,audio/075.wav,,l1_f_en_na_075,,,,,,,image/america.png,image/spain.png,,,,,,,,,,,,,,,,,2,america,spain,,,,,,,,,,,,,,,,"[""lshift"",""rshift"",""lshift""]","[2.9156999999283926,3.1160999999046908,4.070599999904516]",0,44,44,14,1,
006,001,2023-10-19_23h36.34.636,exp_g2,2022.2.5,Win32,60.35367252,,,,,,,015,l1,t,es,na,audio/015.wav,,l1_t_es_na_015,,,,,,,image/america.png,image/spain.png,,,,,,,,,,,,,,,,,2,america,spain,,,,,,,,,,,,,,,,"[""lshift"",""rshift""]","[2.624300000071571,2.8324000000952765]",0,45,45,39,1,1
006,001,2023-10-19_23h36.34.636,exp_g2,2022.2.5,Win32,60.35367252,,,,,,,148,l2,t,es,f0u,audio/148.wav,,l2_t_es_f0u_148,,,,,,,image/america.png,image/spain.png,,,,,,,,,,,,,,,,,2,america,spain,,,,,,,,,,,,,,,,"[""lshift"",""rshift""]","[3.181199999928367,3.431999999999789]",0,46,46,52,1,1
006,001,2023-10-19_23h36.34.636,exp_g2,2022.2.5,Win32,60.35367252,,,,,,,016,l1,t,es,na,audio/016.wav,,l1_t_es_na_016,,,,,,,image/america.png,image/spain.png,,,,,,,,,,,,,,,,,2,america,spain,,,,,,,,,,,,,,,,"[""lshift"",""rshift""]","[3.74740000009524,4.116200000047684]",0,47,47,40,1,1
006,001,2023-10-19_23h36.34.636,exp_g2,2022.2.5,Win32,60.35367252,,,,,,,065,l1,f,en,na,audio/065.wav,,l1_f_en_na_065,,,,,,,image/america.png,image/spain.png,,,,,,,,,,,,,,,,,2,america,spain,,,,,,,,,,,,,,,,"[""lshift""]",[2.508000000000038],0,48,48,4,1,
006,001,2023-10-19_23h36.34.636,exp_g2,2022.2.5,Win32,60.35367252,,,,,,,076,l1,f,se,na,audio/076.wav,,l1_f_se_na_076,,,,,,,image/america.png,image/spain.png,,,,,,,,,,,,,,,,,2,america,spain,,,,,,,,,,,,,,,,"[""rshift"",""lshift""]","[3.6822000000477146,3.816200000047729]",0,49,49,15,1,1
006,001,2023-10-19_23h36.34.636,exp_g2,2022.2.5,Win32,60.35367252,,,,,,,064,l1,f,en,na,audio/064.wav,,l1_f_en_na_064,,,,,,,image/america.png,image/spain.png,,,,,,,,,,,,,,,,,2,america,spain,,,,,,,,,,,,,,,,"[""lshift""]",[2.6648999999761145],0,50,50,3,1,
006,001,2023-10-19_23h36.34.636,exp_g2,2022.2.5,Win32,60.35367252,,,,,,,018,l1,t,es,na,audio/018.wav,,l1_t_es_na_018,,,,,,,image/america.png,image/spain.png,,,,,,,,,,,,,,,,,2,america,spain,,,,,,,,,,,,,,,,"[""lshift"",""rshift"",""rshift"",""rshift""]","[2.665899999976091,2.8990000000001146,2.9333999999762455,3.0153000000716474]",0,51,51,42,1,1
006,001,2023-10-19_23h36.34.636,exp_g2,2022.2.5,Win32,60.35367252,,,,,,,080,l1,f,se,na,audio/080.wav,,l1_f_se_na_080,,,,,,,image/america.png,image/spain.png,,,,,,,,,,,,,,,,,2,america,spain,,,,,,,,,,,,,,,,"[""rshift"",""lshift""]","[1.9823999999759963,2.2652999999522763]",0,52,52,19,1,1
006,001,2023-10-19_23h36.34.636,exp_g2,2022.2.5,Win32,60.35367252,,,,,,,147,l2,t,es,f0u,audio/147.wav,,l2_t_es_f0u_147,,,,,,,image/america.png,image/spain.png,,,,,,,,,,,,,,,,,2,america,spain,,,,,,,,,,,,,,,,"[""lshift"",""rshift""]","[2.9322000000477146,3.18029999995224]",0,53,53,51,1,1
006,001,2023-10-19_23h36.34.636,exp_g2,2022.2.5,Win32,60.35367252,,,,,,,069,l1,f,en,na,audio/069.wav,,l1_f_en_na_069,,,,,,,image/america.png,image/spain.png,,,,,,,,,,,,,,,,,2,america,spain,,,,,,,,,,,,,,,,"[""lshift""]",[2.6483000000714583],0,54,54,8,1,
006,001,2023-10-19_23h36.34.636,exp_g2,2022.2.5,Win32,60.35367252,,,,,,,,,,,,,,,,,,,,,,,,,,,,,,,,,,,,,,,,,,,,,,,,,,,,,,,,,,,,,,,,
