num,list,cond,lang,type,sound_dir,phr,sent_code,mat,mat_num,emb_num,emb,cut,mat_f0_c,left,right,correct_img,correct_key,exp_num,image,image_alt,left_img,right_img,image_dir,cs,exp1_retrial.thisRepN,exp1_retrial.thisTrialN,exp1_retrial.thisN,exp1_retrial.thisIndex,exp1_trial_loop.thisRepN,exp1_trial_loop.thisTrialN,exp1_trial_loop.thisN,exp1_trial_loop.thisIndex,exp1_loop.thisRepN,exp1_loop.thisTrialN,exp1_loop.thisN,exp1_loop.thisIndex,exp2_retrial.thisRepN,exp2_retrial.thisTrialN,exp2_retrial.thisN,exp2_retrial.thisIndex,exp2_trial_loop.thisRepN,exp2_trial_loop.thisTrialN,exp2_trial_loop.thisN,exp2_trial_loop.thisIndex,exp2_loop.thisRepN,exp2_loop.thisTrialN,exp2_loop.thisN,exp2_loop.thisIndex,exp1_trial_cross.started,exp1_trial_key.started,exp1_trial_cross.stopped,exp1_trial_sound.started,exp1_trial_key.stopped,exp1_trial_key.keys,exp1_cross.started,exp1_key.started,exp1_key.keys,exp1_key.corr,exp1_key.rt,exp1_cross.stopped,exp1_sound.started,exp1_key.stopped,exp2_trial_cross.started,exp2_trial_key.started,exp2_trial_cross.stopped,exp2_trial_sound.started,exp2_trial_key.stopped,exp2_trial_key.keys,exp2_trial_key.rt,exp2_cross.started,exp2_key.started,exp2_cross.stopped,exp2_sound.started,exp2_key.stopped,exp2_key.keys,exp2_key.rt,participant,session,date,expName,psychopyVersion,frameRate
tr1,lt,tr,en,na,../practice_trial/audio/tr1.wav,Where are your kids?,lt_tr_en_na_tr1,-,-,-,-,-,-,../image/kids.png,../image/plates.png,kids,lshift,,,,,,,,0,0,0,0,0,0,0,0,,,,,,,,,,,,,,,,,75.49786283,75.65457246,75.73517779,76.41357163,80.68238067,None,,,,,,,,,,,,,,,,,,,,,,,28,1,2023-05-05_15h19.23.523,exp_g2,2022.2.5,None
tr2,lt,tr,en,na,../practice_trial/audio/tr2.wav,Who is buying my car?,lt_tr_en_na_tr2,-,-,-,-,-,-,../image/bag.png,../image/car.png,car,rshift,,,,,,,,0,0,0,0,0,1,1,1,,,,,,,,,,,,,,,,,80.68238067,80.90248713,80.92319808,81.66342542,85.93103617,None,,,,,,,,,,,,,,,,,,,,,,,28,1,2023-05-05_15h19.23.523,exp_g2,2022.2.5,None
tr3,lt,tr,sp,na,../practice_trial/audio/tr3.wav,¿Dónde está mi perro?,lt_tr_sp_na_tr3,-,-,-,-,-,-,../image/dog.png,../image/grandma.png,dog,lshift,,,,,,,,0,0,0,0,0,2,2,2,,,,,,,,,,,,,,,,,85.93103617,86.14696458,86.17016908,86.91483342,91.16960654,None,,,,,,,,,,,,,,,,,,,,,,,28,1,2023-05-05_15h19.23.523,exp_g2,2022.2.5,None
tr4,lt,tr,sp,na,../practice_trial/audio/tr4.wav,¿De quién es la bolsa?,lt_tr_sp_na_tr4,-,-,-,-,-,-,../image/shirt.png,../image/bag.png,bag,rshift,,,,,,,,0,0,0,0,0,3,3,3,,,,,,,,,,,,,,,,,91.16960654,91.40459046,91.41447558,92.16449725,96.43191638,None,,,,,,,,,,,,,,,,,,,,,,,28,1,2023-05-05_15h19.23.523,exp_g2,2022.2.5,None
tr5,lt,tr,se,na,../practice_trial/audio/tr5.wav,¿Dónde encontraste sus donuts?,lt_tr_se_na_tr5,-,-,-,-,-,-,../image/donut.png,../image/cups.png,donut,lshift,,,,,,,,0,0,0,0,0,4,4,4,,,,,,,,,,,,,,,,,96.43191638,96.65429442,96.67088554,97.40485008,101.6807375,None,,,,,,,,,,,,,,,,,,,,,,,28,1,2023-05-05_15h19.23.523,exp_g2,2022.2.5,None
tr6,lt,tr,se,na,../practice_trial/audio/tr6.wav,¿Cuándo compraste tu sweater?,lt_tr_se_na_tr6,-,-,-,-,-,-,../image/chair.png,../image/sweater.png,sweater,rshift,,,,,,,,0,0,0,0,0,5,5,5,,,,,,,,,,,,,,,,,101.6807375,101.9019373,101.9296212,102.664031,106.9309676,None,,,,,,,,,,,,,,,,,,,,,,,28,1,2023-05-05_15h19.23.523,exp_g2,2022.2.5,None
tr7,lt,tr,es,na,../practice_trial/audio/tr7.wav,Why do you have my camisa?,lt_tr_es_na_tr7,-,-,-,-,-,-,../image/shirt.png,../image/wallet.png,shirt,lshift,,,,,,,,0,0,0,0,0,6,6,6,,,,,,,,,,,,,,,,,106.9309676,107.153646,107.1711666,107.9139493,112.1806472,None,,,,,,,,,,,,,,,,,,,,,,,28,1,2023-05-05_15h19.23.523,exp_g2,2022.2.5,None
tr8,lt,tr,es,na,../practice_trial/audio/tr8.wav,Where did you find his chanclas?,lt_tr_es_na_tr8,-,-,-,-,-,-,../image/key.png,../image/flipflops.png,flipflops,rshift,,,,,,,,0,0,0,0,0,7,7,7,,,,,,,,,,,,,,,,,112.1806472,112.4040428,112.4309681,113.1630236,117.3979603,None,,,,,,,,,,,,,,,,,,,,,,,28,1,2023-05-05_15h19.23.523,exp_g2,2022.2.5,None
,,,,,,,,,,,,,,,,,,,,,,,,,0,0,0,0,,,,,,,,,,,,,,,,,,,,,,,,,,,,,,,,,,,,,,,,,,,,,,,,,28,1,2023-05-05_15h19.23.523,exp_g2,2022.2.5,None
126,l2,f,sp,na,../audio/126.wav,,l2_f_sp_na_126,,,,,,,../image/backpack.png,../image/key.png,key,rshift,1,key,backpack,backpack,key,None,,,,,,,,,,0,0,0,30,,,,,,,,,,,,,,,,,,,160.0083588,160.0465496,lshift,0,[-2.931696917046793],,,,,,,,,,,,,,,,,,28,1,2023-05-05_15h19.23.523,exp_g2,2022.2.5,None
125,l2,f,sp,na,../audio/125.wav,,l2_f_sp_na_125,,,,,,,../image/desk.png,../image/bottle.png,desk,lshift,1,desk,bottle,desk,bottle,None,,,,,,,,,,0,1,1,29,,,,,,,,,,,,,,,,,,,160.0702732,160.2858185,lshift,1,[2.5094355000182986],160.3179962,161.0474975,,,,,,,,,,,,,,,,28,1,2023-05-05_15h19.23.523,exp_g2,2022.2.5,None
127,l2,f,sp,na,../audio/127.wav,,l2_f_sp_na_127,,,,,,,../image/cat.png,../image/dog.png,cat,lshift,1,cat,dog,cat,dog,None,,,,,,,,,,0,2,2,31,,,,,,,,,,,,,,,,,,,162.8402434,163.0472782,None,0,,163.0880316,163.8034708,168.0788328,,,,,,,,,,,,,,,28,1,2023-05-05_15h19.23.523,exp_g2,2022.2.5,None
102,l2,f,en,na,../audio/102.wav,,l2_f_en_na_102,,,,,,,../image/socks.png,../image/book.png,books,rshift,1,books,socks,socks,book,None,,,,,,,,,,0,3,3,6,,,,,,,,,,,,,,,,,,,168.0788328,168.2960028,rshift,1,[2.0354931249748915],168.3194736,169.0524064,,,,,,,,,,,,,,,,28,1,2023-05-05_15h19.23.523,exp_g2,2022.2.5,None
112,l2,f,se,na,../audio/112.wav,,l2_f_se_na_112,,,,,,,../image/burger.png,../image/hotdog.png,hotdog,rshift,1,hotdog,burger,burger,hotdog,None,,,,,,,,,,0,4,4,16,,,,,,,,,,,,,,,,,,,170.3873065,170.5874085,rshift,1,[2.1795047080377117],170.6302207,171.3473458,,,,,,,,,,,,,,,,28,1,2023-05-05_15h19.23.523,exp_g2,2022.2.5,None
27,l2,t,es,na,../audio/027.wav,,l2_t_es_na_027,,,,,,,../image/shirt.png,../image/book.png,shirt,lshift,1,shirt,book,shirt,book,None,,,,,,,,,,0,5,5,41,,,,,,,,,,,,,,,,,,,172.8119845,173.0207785,lshift,1,[1.9469360000221059],173.0537967,173.7710293,,,,,,,,,,,,,,,,28,1,2023-05-05_15h19.23.523,exp_g2,2022.2.5,None
147,l2,t,es,f0u,../audio/147.wav,,l2_t_es_f0u_147,,,,,,,../image/truck.png,../image/book.png,truck,lshift,1,truck,book,truck,book,None,,,,,,,,,,0,6,6,51,,,,,,,,,,,,,,,,,,,175.0164114,175.2207707,None,0,,175.2638626,175.9801731,180.2501868,,,,,,,,,,,,,,,28,1,2023-05-05_15h19.23.523,exp_g2,2022.2.5,None
106,l2,f,en,na,../audio/106.wav,,l2_f_en_na_106,,,,,,,../image/wallet.png,../image/computer.png,computer,rshift,1,computer,wallet,wallet,computer,None,,,,,,,,,,0,7,7,10,,,,,,,,,,,,,,,,,,,180.2501868,180.4704388,rshift,1,[2.5948536249343306],180.4972199,181.230149,,,,,,,,,,,,,,,,28,1,2023-05-05_15h19.23.523,exp_g2,2022.2.5,None
149,l2,t,es,f0u,../audio/149.wav,,l2_t_es_f0u_149,,,,,,,../image/boy.png,../image/dog.png,boy,lshift,1,boy,dog,boy,dog,None,,,,,,,,,,0,8,8,53,,,,,,,,,,,,,,,,,,,183.1161588,183.3213114,lshift,1,[2.717288749990985],183.364097,184.0795169,,,,,,,,,,,,,,,,28,1,2023-05-05_15h19.23.523,exp_g2,2022.2.5,None
29,l2,t,es,na,../audio/029.wav,,l2_t_es_na_029,,,,,,,../image/armchair.png,../image/ring.png,armchair,lshift,1,armchair,ring,armchair,ring,None,,,,,,,,,,0,9,9,43,,,,,,,,,,,,,,,,,,,186.0940972,186.2969261,None,0,,186.3368593,187.052726,191.3252111,,,,,,,,,,,,,,,28,1,2023-05-05_15h19.23.523,exp_g2,2022.2.5,None
145,l2,t,es,f0u,../audio/145.wav,,l2_t_es_f0u_145,,,,,,,../image/bag.png,../image/flower.png,bag,lshift,1,bag,flower,bag,flower,None,,,,,,,,,,0,10,10,49,,,,,,,,,,,,,,,,,,,191.3252111,191.5473608,lshift,1,[2.04098366596736],191.56817,192.3033455,,,,,,,,,,,,,,,,28,1,2023-05-05_15h19.23.523,exp_g2,2022.2.5,None
97,l2,f,en,na,../audio/097.wav,,l2_f_en_na_097,,,,,,,../image/ring.png,../image/belt.png,ring,lshift,1,ring,belt,ring,belt,None,,,,,,,,,,0,11,11,1,,,,,,,,,,,,,,,,,,,193.6380973,193.8471602,lshift,1,[2.078482708078809],193.8848615,194.6039175,,,,,,,,,,,,,,,,28,1,2023-05-05_15h19.23.523,exp_g2,2022.2.5,None
23,l2,t,es,na,../audio/023.wav,,l2_t_es_na_023,,,,,,,../image/wine.png,../image/cellphone.png,wine,lshift,1,wine,cellphone,wine,cellphone,None,,,,,,,,,,0,12,12,37,,,,,,,,,,,,,,,,,,,195.9716442,196.170256,lshift,1,[2.211712332908064],196.2184408,196.9300853,,,,,,,,,,,,,,,,28,1,2023-05-05_15h19.23.523,exp_g2,2022.2.5,None
98,l2,f,en,na,../audio/098.wav,,l2_f_en_na_098,,,,,,,../image/man.png,../image/woman.png,woman,rshift,1,woman,man,man,woman,None,,,,,,,,,,0,13,13,2,,,,,,,,,,,,,,,,,,,198.430343,198.6371274,rshift,1,[2.034419334027916],198.6678159,199.3970892,,,,,,,,,,,,,,,,28,1,2023-05-05_15h19.23.523,exp_g2,2022.2.5,None
108,l2,f,en,na,../audio/108.wav,,l2_f_en_na_108,,,,,,,../image/scarf.png,../image/socks.png,socks,rshift,1,socks,scarf,scarf,socks,None,,,,,,,,,,0,14,14,12,,,,,,,,,,,,,,,,,,,200.7236556,200.9202595,rshift,1,[3.883776000002399],200.9700601,201.6804639,,,,,,,,,,,,,,,,28,1,2023-05-05_15h19.23.523,exp_g2,2022.2.5,None
148,l2,t,es,f0u,../audio/148.wav,,l2_t_es_f0u_148,,,,,,,../image/newspaper.png,../image/cups.png,cups,rshift,1,cups,newspaper,newspaper,cups,None,,,,,,,,,,0,15,15,52,,,,,,,,,,,,,,,,,,,204.8494279,205.0535763,rshift,1,[2.9776805829023942],205.0970716,205.8136781,,,,,,,,,,,,,,,,28,1,2023-05-05_15h19.23.523,exp_g2,2022.2.5,None
144,l2,t,es,f0u,../audio/144.wav,,l2_t_es_f0u_144,,,,,,,../image/bracelet.png,../image/backpack.png,backpack,rshift,1,backpack,bracelet,bracelet,backpack,None,,,,,,,,,,0,16,16,48,,,,,,,,,,,,,,,,,,,208.084799,208.2873551,rshift,1,[2.6319341249763966],208.3298328,209.0471473,,,,,,,,,,,,,,,,28,1,2023-05-05_15h19.23.523,exp_g2,2022.2.5,None
103,l2,f,en,na,../audio/103.wav,,l2_f_en_na_103,,,,,,,../image/toys.png,../image/sneakers.png,toys,lshift,1,toys,sneakers,toys,sneakers,None,,,,,,,,,,0,17,17,7,,,,,,,,,,,,,,,,,,,210.9663984,211.1704045,lshift,1,[2.0710739999776706],211.2135816,211.9298236,,,,,,,,,,,,,,,,28,1,2023-05-05_15h19.23.523,exp_g2,2022.2.5,None
100,l2,f,en,na,../audio/100.wav,,l2_f_en_na_100,,,,,,,../image/wallet.png,../image/scarf.png,scarf,rshift,1,scarf,wallet,wallet,scarf,None,,,,,,,,,,0,18,18,4,,,,,,,,,,,,,,,,,,,213.2945855,213.4970979,rshift,1,[1.8134259580401704],213.5347571,214.2525557,,,,,,,,,,,,,,,,28,1,2023-05-05_15h19.23.523,exp_g2,2022.2.5,None
123,l2,f,sp,na,../audio/123.wav,,l2_f_sp_na_123,,,,,,,../image/sweater.png,../image/cellphone.png,sweater,lshift,1,sweater,cellphone,sweater,cellphone,None,,,,,,,,,,0,19,19,27,,,,,,,,,,,,,,,,,,,215.3557238,215.5536732,lshift,1,[1.9817660830449313],215.6014188,216.3136032,,,,,,,,,,,,,,,,28,1,2023-05-05_15h19.23.523,exp_g2,2022.2.5,None
143,l2,t,es,f0u,../audio/143.wav,,l2_t_es_f0u_143,,,,,,,../image/horchata.png,../image/beer.png,horchata,lshift,1,horchata,beer,horchata,beer,None,,,,,,,,,,0,20,20,47,,,,,,,,,,,,,,,,,,,217.5769267,217.787095,None,0,,217.8199071,218.5468446,222.8092823,,,,,,,,,,,,,,,28,1,2023-05-05_15h19.23.523,exp_g2,2022.2.5,None
107,l2,f,en,na,../audio/107.wav,,l2_f_en_na_107,,,,,,,../image/man.png,../image/cat.png,man,lshift,1,man,cat,man,cat,None,,,,,,,,,,0,21,21,11,,,,,,,,,,,,,,,,,,,222.8092823,223.0371851,lshift,1,[2.1293587919790298],223.0530087,223.7966044,,,,,,,,,,,,,,,,28,1,2023-05-05_15h19.23.523,exp_g2,2022.2.5,None
111,l2,f,se,na,../audio/111.wav,,l2_f_se_na_111,,,,,,,../image/mashedpotatoes.png,../image/donut.png,mashedpotatoes,lshift,1,mashedpotatoes,donut,mashedpotatoes,donut,None,,,,,,,,,,0,22,22,15,,,,,,,,,,,,,,,,,,,225.2149657,225.4204282,lshift,1,[2.147882374934852],225.4636149,226.170795,,,,,,,,,,,,,,,,28,1,2023-05-05_15h19.23.523,exp_g2,2022.2.5,None
142,l2,t,es,f0u,../audio/142.wav,,l2_t_es_f0u_142,,,,,,,../image/car.png,../image/truck.png,truck,rshift,1,truck,car,car,truck,None,,,,,,,,,,0,23,23,46,,,,,,,,,,,,,,,,,,,227.6142987,227.8204431,None,0,,227.8635313,228.5799038,232.8425902,,,,,,,,,,,,,,,28,1,2023-05-05_15h19.23.523,exp_g2,2022.2.5,None
110,l2,f,en,na,../audio/110.wav,,l2_f_en_na_110,,,,,,,../image/dog.png,../image/cat.png,cat,rshift,1,cat,dog,dog,cat,None,,,,,,,,,,0,24,24,14,,,,,,,,,,,,,,,,,,,232.8425902,233.0707515,rshift,1,[2.376817832933739],233.0867573,233.8200397,,,,,,,,,,,,,,,,28,1,2023-05-05_15h19.23.523,exp_g2,2022.2.5,None
116,l2,f,se,na,../audio/116.wav,,l2_f_se_na_116,,,,,,,../image/sweatpants.png,../image/boxers.png,boxers,rshift,1,boxers,sweatpants,sweatpants,boxers,None,,,,,,,,,,0,25,25,20,,,,,,,,,,,,,,,,,,,235.497535,235.7037058,rshift,1,[2.902964917011559],235.736527,236.463703,,,,,,,,,,,,,,,,28,1,2023-05-05_15h19.23.523,exp_g2,2022.2.5,None
130,l2,f,sp,na,../audio/130.wav,,l2_f_sp_na_130,,,,,,,../image/socks.png,../image/glasses.png,glasses,rshift,1,glasses,socks,socks,glasses,None,,,,,,,,,,0,26,26,34,,,,,,,,,,,,,,,,,,,238.6512791,238.8536993,rshift,1,[2.2313035000115633],238.8967632,239.618223,,,,,,,,,,,,,,,,28,1,2023-05-05_15h19.23.523,exp_g2,2022.2.5,None
26,l2,t,es,na,../audio/026.wav,,l2_t_es_na_026,,,,,,,../image/village.png,../image/grandma.png,grandma,rshift,1,grandma,village,village,grandma,None,,,,,,,,,,0,27,27,40,,,,,,,,,,,,,,,,,,,241.1311723,241.3367712,rshift,1,[2.318483958952129],241.3800677,242.0968427,,,,,,,,,,,,,,,,28,1,2023-05-05_15h19.23.523,exp_g2,2022.2.5,None
99,l2,f,en,na,../audio/099.wav,,l2_f_en_na_099,,,,,,,../image/dog.png,../image/cat.png,dog,lshift,1,dog,cat,dog,cat,None,,,,,,,,,,0,28,28,3,,,,,,,,,,,,,,,,,,,243.704207,243.903434,lshift,1,[1.4944668329553679],243.9467174,244.6634535,,,,,,,,,,,,,,,,28,1,2023-05-05_15h19.23.523,exp_g2,2022.2.5,None
121,l2,f,sp,na,../audio/121.wav,,l2_f_sp_na_121,,,,,,,../image/shoe.png,../image/glasses.png,shoe,lshift,1,shoe,glasses,shoe,glasses,None,,,,,,,,,,0,29,29,25,,,,,,,,,,,,,,,,,,,245.4444888,245.6533489,lshift,1,[2.0436720410361886],245.6844757,246.4135152,,,,,,,,,,,,,,,,28,1,2023-05-05_15h19.23.523,exp_g2,2022.2.5,None
25,l2,t,es,na,../audio/025.wav,,l2_t_es_na_025,,,,,,,../image/cellphone.png,../image/truck.png,cellphone,lshift,1,cellphone,truck,cellphone,truck,None,,,,,,,,,,0,30,30,39,,,,,,,,,,,,,,,,,,,247.746915,247.9457995,None,0,,247.9968459,248.7027125,252.970993,,,,,,,,,,,,,,,28,1,2023-05-05_15h19.23.523,exp_g2,2022.2.5,None
146,l2,t,es,f0u,../audio/146.wav,,l2_t_es_f0u_146,,,,,,,../image/cellphone.png,../image/flipflops.png,flipflops,rshift,1,flipflops,cellphone,cellphone,flipflops,None,,,,,,,,,,0,31,31,50,,,,,,,,,,,,,,,,,,,252.970993,253.2013737,rshift,1,[3.022894666995853],253.2184121,253.9530348,,,,,,,,,,,,,,,,28,1,2023-05-05_15h19.23.523,exp_g2,2022.2.5,None
129,l2,f,sp,na,../audio/129.wav,,l2_f_sp_na_129,,,,,,,../image/bag.png,../image/chair.png,bag,lshift,1,bag,chair,bag,chair,None,,,,,,,,,,0,32,32,33,,,,,,,,,,,,,,,,,,,256.2707032,256.4692802,lshift,1,[2.9326957910088822],256.5198492,257.2299334,,,,,,,,,,,,,,,,28,1,2023-05-05_15h19.23.523,exp_g2,2022.2.5,None
120,l2,f,se,na,../audio/120.wav,,l2_f_se_na_120,,,,,,,../image/glasses.png,../image/joycons.png,joycons,rshift,1,joycons,glasses,glasses,joycons,None,,,,,,,,,,0,33,33,24,,,,,,,,,,,,,,,,,,,259.4418337,259.6536044,None,0,,259.6862365,260.4035611,264.6917574,,,,,,,,,,,,,,,28,1,2023-05-05_15h19.23.523,exp_g2,2022.2.5,None
113,l2,f,se,na,../audio/113.wav,,l2_f_se_na_113,,,,,,,../image/loafers.png,../image/sneakers.png,loafers,lshift,1,loafers,sneakers,loafers,sneakers,None,,,,,,,,,,0,34,34,17,,,,,,,,,,,,,,,,,,,264.6917574,264.9033679,lshift,1,[2.182897667051293],264.9364412,265.6532935,,,,,,,,,,,,,,,,28,1,2023-05-05_15h19.23.523,exp_g2,2022.2.5,None
109,l2,f,en,na,../audio/109.wav,,l2_f_en_na_109,,,,,,,../image/fish.png,../image/woman.png,fish,lshift,1,fish,woman,fish,woman,None,,,,,,,,,,0,35,35,13,,,,,,,,,,,,,,,,,,,267.1395894,267.3466138,lshift,1,[1.6614575830753893],267.384619,268.1026666,,,,,,,,,,,,,,,,28,1,2023-05-05_15h19.23.523,exp_g2,2022.2.5,None
124,l2,f,sp,na,../audio/124.wav,,l2_f_sp_na_124,,,,,,,../image/bag.png,../image/bed.png,bed,rshift,1,bed,bag,bag,bed,None,,,,,,,,,,0,36,36,28,,,,,,,,,,,,,,,,,,,269.058329,269.2633186,rshift,1,[2.1602754169143736],269.3028256,270.020685,,,,,,,,,,,,,,,,28,1,2023-05-05_15h19.23.523,exp_g2,2022.2.5,None
115,l2,f,se,na,../audio/115.wav,,l2_f_se_na_115,,,,,,,../image/notebook.png,../image/cellphone.png,notebook,lshift,1,notebook,cellphone,notebook,cellphone,None,,,,,,,,,,0,37,37,19,,,,,,,,,,,,,,,,,,,271.4725236,271.6794983,lshift,1,[2.145945332944393],271.7202636,272.4364727,,,,,,,,,,,,,,,,28,1,2023-05-05_15h19.23.523,exp_g2,2022.2.5,None
141,l2,t,es,f0u,../audio/141.wav,,l2_t_es_f0u_141,,,,,,,../image/dog.png,../image/backpack.png,dog,lshift,1,dog,backpack,dog,backpack,None,,,,,,,,,,0,38,38,45,,,,,,,,,,,,,,,,,,,273.8754472,274.0793874,lshift,1,[2.043692750041373],274.1196582,274.8364149,,,,,,,,,,,,,,,,28,1,2023-05-05_15h19.23.523,exp_g2,2022.2.5,None
22,l2,t,es,na,../audio/022.wav,,l2_t_es_na_022,,,,,,,../image/dog.png,../image/cat.png,cat,rshift,1,cat,dog,dog,cat,None,,,,,,,,,,0,39,39,36,,,,,,,,,,,,,,,,,,,276.1740557,276.3800503,rshift,1,[2.0187132919672877],276.420089,277.1356661,,,,,,,,,,,,,,,,28,1,2023-05-05_15h19.23.523,exp_g2,2022.2.5,None
24,l2,t,es,na,../audio/024.wav,,l2_t_es_na_024,,,,,,,../image/bed.png,../image/jug.png,jug,rshift,1,jug,bed,bed,jug,None,,,,,,,,,,0,40,40,38,,,,,,,,,,,,,,,,,,,278.4459688,278.6460268,None,0,,278.6863998,279.4024855,283.6755849,,,,,,,,,,,,,,,28,1,2023-05-05_15h19.23.523,exp_g2,2022.2.5,None
118,l2,f,se,na,../audio/118.wav,,l2_f_se_na_118,,,,,,,../image/icecream.png,../image/donut.png,donut,rshift,1,donut,icecream,icecream,donut,None,,,,,,,,,,0,41,41,22,,,,,,,,,,,,,,,,,,,283.6755849,283.8959857,rshift,1,[1.6340555830392987],283.9199867,284.6529771,,,,,,,,,,,,,,,,28,1,2023-05-05_15h19.23.523,exp_g2,2022.2.5,None
119,l2,f,se,na,../audio/119.wav,,l2_f_se_na_119,,,,,,,../image/penthouse.png,../image/rocket.png,penthouse,lshift,1,penthouse,rocket,penthouse,rocket,None,,,,,,,,,,0,42,42,23,,,,,,,,,,,,,,,,,,,285.5766955,285.7799364,lshift,1,[2.2171629169024527],285.8194443,286.5366688,,,,,,,,,,,,,,,,28,1,2023-05-05_15h19.23.523,exp_g2,2022.2.5,None
28,l2,t,es,na,../audio/028.wav,,l2_t_es_na_028,,,,,,,../image/pants.png,../image/glasses.png,glasses,rshift,1,glasses,pants,pants,glasses,None,,,,,,,,,,0,43,43,42,,,,,,,,,,,,,,,,,,,288.0464802,288.2531219,rshift,1,[1.9528775829821825],288.2863275,289.0133162,,,,,,,,,,,,,,,,28,1,2023-05-05_15h19.23.523,exp_g2,2022.2.5,None
30,l2,t,es,na,../audio/030.wav,,l2_t_es_na_030,,,,,,,../image/flipflops.png,../image/boy.png,boy,rshift,1,boy,flipflops,flipflops,boy,None,,,,,,,,,,0,44,44,44,,,,,,,,,,,,,,,,,,,290.2562278,290.4625727,rshift,1,[2.468942000064999],290.5015138,291.2172475,,,,,,,,,,,,,,,,28,1,2023-05-05_15h19.23.523,exp_g2,2022.2.5,None
104,l2,f,en,na,../audio/104.wav,,l2_f_en_na_104,,,,,,,../image/shirt.png,../image/bag.png,bag,rshift,1,bag,shirt,shirt,bag,None,,,,,,,,,,0,45,45,8,,,,,,,,,,,,,,,,,,,292.9763965,293.1864303,rshift,1,[1.9218527080956846],293.21601,293.9465754,,,,,,,,,,,,,,,,28,1,2023-05-05_15h19.23.523,exp_g2,2022.2.5,None
96,l2,f,en,na,../audio/096.wav,,l2_f_en_na_096,,,,,,,../image/woman.png,../image/cat.png,cat,rshift,1,cat,woman,woman,cat,../image/,,,,,,,,,,0,46,46,0,,,,,,,,,,,,,,,,,,,295.1554483,295.3627494,rshift,1,[1.6891012080013752],295.4031071,296.1199701,,,,,,,,,,,,,,,,28,1,2023-05-05_15h19.23.523,exp_g2,2022.2.5,None
122,l2,f,sp,na,../audio/122.wav,,l2_f_sp_na_122,,,,,,,../image/desk.png,../image/chair.png,chair,rshift,1,chair,desk,desk,chair,None,,,,,,,,,,0,47,47,26,,,,,,,,,,,,,,,,,,,297.0971968,297.3029828,rshift,1,[2.804833583999425],297.3462873,298.0631948,,,,,,,,,,,,,,,,28,1,2023-05-05_15h19.23.523,exp_g2,2022.2.5,None
21,l2,t,es,na,../audio/021.wav,,l2_t_es_na_021,,,,,,,../image/jacket.png,../image/flipflops.png,jacket,lshift,1,jacket,flipflops,jacket,flipflops,None,,,,,,,,,,0,48,48,35,,,,,,,,,,,,,,,,,,,300.1595027,300.3632912,lshift,1,[2.186440792051144],300.4015132,301.1196109,,,,,,,,,,,,,,,,28,1,2023-05-05_15h19.23.523,exp_g2,2022.2.5,None
114,l2,f,se,na,../audio/114.wav,,l2_f_se_na_114,,,,,,,../image/jeans.png,../image/sweatpants.png,sweatpants,rshift,1,sweatpants,jeans,jeans,sweatpants,None,,,,,,,,,,0,49,49,18,,,,,,,,,,,,,,,,,,,302.5931614,302.8034714,lshift,0,[2.023936292040162],302.833618,303.5626024,,,,,,,,,,,,,,,,28,1,2023-05-05_15h19.23.523,exp_g2,2022.2.5,None
101,l2,f,en,na,../audio/101.wav,,l2_f_en_na_101,,,,,,,../image/computer.png,../image/bag.png,computer,lshift,1,computer,bag,computer,bag,None,,,,,,,,,,0,50,50,5,,,,,,,,,,,,,,,,,,,304.8729413,305.0791488,lshift,1,[2.078134916955605],305.118019,305.8299267,,,,,,,,,,,,,,,,28,1,2023-05-05_15h19.23.523,exp_g2,2022.2.5,None
128,l2,f,sp,na,../audio/128.wav,,l2_f_sp_na_128,,,,,,,../image/cups.png,../image/kids.png,kids,rshift,1,kids,cups,cups,kids,None,,,,,,,,,,0,51,51,32,,,,,,,,,,,,,,,,,,,307.2073767,307.4129544,rshift,1,[1.6109467080095783],307.4503082,308.1699214,,,,,,,,,,,,,,,,28,1,2023-05-05_15h19.23.523,exp_g2,2022.2.5,None
105,l2,f,en,na,../audio/105.wav,,l2_f_en_na_105,,,,,,,../image/bed.png,../image/plane.png,bed,lshift,1,bed,plane,bed,plane,None,,,,,,,,,,0,52,52,9,,,,,,,,,,,,,,,,,,,309.0730941,309.2792102,lshift,1,[1.5791044579818845],309.3192472,310.0359003,,,,,,,,,,,,,,,,28,1,2023-05-05_15h19.23.523,exp_g2,2022.2.5,None
150,l2,t,es,f0u,../audio/150.wav,,l2_t_es_f0u_150,,,,,,,../image/cat.png,../image/key.png,key,rshift,1,key,cat,cat,key,None,,,,,,,,,,0,53,53,54,,,,,,,,,,,,,,,,,,,310.9047902,311.112653,lshift,0,[1.8040941670769826],311.1520341,311.8693645,,,,,,,,,,,,,,,,28,1,2023-05-05_15h19.23.523,exp_g2,2022.2.5,None
117,l2,f,se,na,../audio/117.wav,,l2_f_se_na_117,,,,,,,../image/spongebob.png,../image/mickeymouse.png,spongebob,lshift,1,spongebob,mickeymouse,spongebob,mickeymouse,None,,,,,,,,,,0,54,54,21,,,,,,,,,,,,,,,,,,,312.9562675,313.1675153,lshift,1,[2.155613583046943],313.200654,313.9202783,,,,,,,,,,,,,,,,28,1,2023-05-05_15h19.23.523,exp_g2,2022.2.5,None
tr1,lt,tr,en,na,../practice_trial/audio/tr1.wav,Where are your kids?,lt_tr_en_na_tr1,-,-,-,-,-,-,../image/america.png,../image/spain.png,,,,,,,,,,,,,,,,,,,,,,0,0,0,0,0,0,0,0,,,,,,,,,,,,,,,,,,,349.2589264,349.4536983,349.5021573,350.2127017,354.4813473,"['lshift', 'lshift']","[1.8798805410042405, 4.57071487500798]",,,,,,,,28,1,2023-05-05_15h19.23.523,exp_g2,2022.2.5,None
tr2,lt,tr,en,na,../practice_trial/audio/tr2.wav,Who is buying my car?,lt_tr_en_na_tr2,-,-,-,-,-,-,../image/america.png,../image/spain.png,,,,,,,,,,,,,,,,,,,,,,0,0,0,0,0,1,1,1,,,,,,,,,,,,,,,,,,,354.4813473,354.7031777,354.7294253,355.4533415,359.732322,['lshift'],[1.980182999977842],,,,,,,,28,1,2023-05-05_15h19.23.523,exp_g2,2022.2.5,None
tr3,lt,tr,sp,na,../practice_trial/audio/tr3.wav,¿Dónde está mi perro?,lt_tr_sp_na_tr3,-,-,-,-,-,-,../image/america.png,../image/spain.png,,,,,,,,,,,,,,,,,,,,,,0,0,0,0,0,2,2,2,,,,,,,,,,,,,,,,,,,359.732322,359.9530651,359.9793683,360.7126366,364.9741191,"['lshift', 'rshift']","[1.647331124986522, 2.1630083339987323]",,,,,,,,28,1,2023-05-05_15h19.23.523,exp_g2,2022.2.5,None
tr4,lt,tr,sp,na,../practice_trial/audio/tr4.wav,¿De quién es la bolsa?,lt_tr_sp_na_tr4,-,-,-,-,-,-,../image/america.png,../image/spain.png,,,,,,,,,,,,,,,,,,,,,,0,0,0,0,0,3,3,3,,,,,,,,,,,,,,,,,,,364.9741191,365.2026397,365.218103,365.9627767,370.2330003,['rshift'],[1.5605478750076145],,,,,,,,28,1,2023-05-05_15h19.23.523,exp_g2,2022.2.5,None
tr5,lt,tr,se,na,../practice_trial/audio/tr5.wav,¿Dónde encontraste sus donuts?,lt_tr_se_na_tr5,-,-,-,-,-,-,../image/america.png,../image/spain.png,,,,,,,,,,,,,,,,,,,,,,0,0,0,0,0,4,4,4,,,,,,,,,,,,,,,,,,,370.2330003,370.4529076,370.4793896,371.212715,375.4721195,['rshift'],[1.3188284169882536],,,,,,,,28,1,2023-05-05_15h19.23.523,exp_g2,2022.2.5,None
tr6,lt,tr,se,na,../practice_trial/audio/tr6.wav,¿Cuándo compraste tu sweater?,lt_tr_se_na_tr6,-,-,-,-,-,-,../image/america.png,../image/spain.png,,,,,,,,,,,,,,,,,,,,,,0,0,0,0,0,5,5,5,,,,,,,,,,,,,,,,,,,375.4721195,375.702706,375.7167013,376.4626228,380.7212544,['rshift'],[2.950151457916945],,,,,,,,28,1,2023-05-05_15h19.23.523,exp_g2,2022.2.5,None
tr7,lt,tr,es,na,../practice_trial/audio/tr7.wav,Why do you have my camisa?,lt_tr_es_na_tr7,-,-,-,-,-,-,../image/america.png,../image/spain.png,,,,,,,,,,,,,,,,,,,,,,0,0,0,0,0,6,6,6,,,,,,,,,,,,,,,,,,,380.7212544,380.9528076,380.9671662,381.71113,385.9713913,['lshift'],[1.3674896250013262],,,,,,,,28,1,2023-05-05_15h19.23.523,exp_g2,2022.2.5,None
tr8,lt,tr,es,na,../practice_trial/audio/tr8.wav,Where did you find his chanclas?,lt_tr_es_na_tr8,-,-,-,-,-,-,../image/america.png,../image/spain.png,,,,,,,,,,,,,,,,,,,,,,0,0,0,0,0,7,7,7,,,,,,,,,,,,,,,,,,,385.9713913,386.2027129,386.2177061,386.9621875,391.2045061,"['lshift', 'rshift']","[1.3273042080691084, 3.1804692080477253]",,,,,,,,28,1,2023-05-05_15h19.23.523,exp_g2,2022.2.5,None
,,,,,,,,,,,,,,,,,,,,,,,,,,,,,,,,,,,,,0,0,0,0,,,,,,,,,,,,,,,,,,,,,,,,,,,,,,,,,,,,,28,1,2023-05-05_15h19.23.523,exp_g2,2022.2.5,None
tr1,lt,tr,en,na,../practice_trial/audio/tr1.wav,Where are your kids?,lt_tr_en_na_tr1,-,-,-,-,-,-,../image/america.png,../image/spain.png,,,,,,,,,,,,,,,,,,,,,,1,0,1,0,0,0,0,0,,,,,,,,,,,,,,,,,,,395.8856765,396.0860309,396.129025,396.8453643,401.1034404,['lshift'],[1.3898859169567004],,,,,,,,28,1,2023-05-05_15h19.23.523,exp_g2,2022.2.5,None
tr2,lt,tr,en,na,../practice_trial/audio/tr2.wav,Who is buying my car?,lt_tr_en_na_tr2,-,-,-,-,-,-,../image/america.png,../image/spain.png,,,,,,,,,,,,,,,,,,,,,,1,0,1,0,0,1,1,1,,,,,,,,,,,,,,,,,,,401.1034404,401.3358777,401.3447141,402.0944527,406.3538202,['lshift'],[1.1812091660685837],,,,,,,,28,1,2023-05-05_15h19.23.523,exp_g2,2022.2.5,None
tr3,lt,tr,sp,na,../practice_trial/audio/tr3.wav,¿Dónde está mi perro?,lt_tr_sp_na_tr3,-,-,-,-,-,-,../image/america.png,../image/spain.png,,,,,,,,,,,,,,,,,,,,,,1,0,1,0,0,2,2,2,,,,,,,,,,,,,,,,,,,406.3538202,406.5860745,406.6019989,407.3453236,411.6114349,['rshift'],[1.3777526250341907],,,,,,,,28,1,2023-05-05_15h19.23.523,exp_g2,2022.2.5,None
tr4,lt,tr,sp,na,../practice_trial/audio/tr4.wav,¿De quién es la bolsa?,lt_tr_sp_na_tr4,-,-,-,-,-,-,../image/america.png,../image/spain.png,,,,,,,,,,,,,,,,,,,,,,1,0,1,0,0,3,3,3,,,,,,,,,,,,,,,,,,,411.6114349,411.8354774,411.8504466,412.5957471,416.8460582,['rshift'],[1.5181565419770777],,,,,,,,28,1,2023-05-05_15h19.23.523,exp_g2,2022.2.5,None
tr5,lt,tr,se,na,../practice_trial/audio/tr5.wav,¿Dónde encontraste sus donuts?,lt_tr_se_na_tr5,-,-,-,-,-,-,../image/america.png,../image/spain.png,,,,,,,,,,,,,,,,,,,,,,1,0,1,0,0,4,4,4,,,,,,,,,,,,,,,,,,,416.8460582,417.0842755,417.0950409,417.8447407,422.1026047,['rshift'],[1.4208923330297694],,,,,,,,28,1,2023-05-05_15h19.23.523,exp_g2,2022.2.5,None
tr6,lt,tr,se,na,../practice_trial/audio/tr6.wav,¿Cuándo compraste tu sweater?,lt_tr_se_na_tr6,-,-,-,-,-,-,../image/america.png,../image/spain.png,,,,,,,,,,,,,,,,,,,,,,1,0,1,0,0,5,5,5,,,,,,,,,,,,,,,,,,,422.1026047,422.3361633,422.3440559,423.0959046,427.3514025,"['lshift', 'rshift']","[1.1932624169858173, 1.3271712498972192]",,,,,,,,28,1,2023-05-05_15h19.23.523,exp_g2,2022.2.5,None
tr7,lt,tr,es,na,../practice_trial/audio/tr7.wav,Why do you have my camisa?,lt_tr_es_na_tr7,-,-,-,-,-,-,../image/america.png,../image/spain.png,,,,,,,,,,,,,,,,,,,,,,1,0,1,0,0,6,6,6,,,,,,,,,,,,,,,,,,,427.3514025,427.5851782,427.5951134,428.3365311,432.6046262,"['lshift', 'rshift']","[1.8104681249242276, 2.4815870409365743]",,,,,,,,28,1,2023-05-05_15h19.23.523,exp_g2,2022.2.5,None
tr8,lt,tr,es,na,../practice_trial/audio/tr8.wav,Where did you find his chanclas?,lt_tr_es_na_tr8,-,-,-,-,-,-,../image/america.png,../image/spain.png,,,,,,,,,,,,,,,,,,,,,,1,0,1,0,0,7,7,7,,,,,,,,,,,,,,,,,,,432.6046262,432.8357257,432.8495805,433.5954529,437.8272805,"['lshift', 'rshift']","[1.493535166955553, 2.3108237499836832]",,,,,,,,28,1,2023-05-05_15h19.23.523,exp_g2,2022.2.5,None
,,,,,,,,,,,,,,,,,,,,,,,,,,,,,,,,,,,,,1,0,1,0,,,,,,,,,,,,,,,,,,,,,,,,,,,,,,,,,,,,,28,1,2023-05-05_15h19.23.523,exp_g2,2022.2.5,None
tr1,lt,tr,en,na,../practice_trial/audio/tr1.wav,Where are your kids?,lt_tr_en_na_tr1,-,-,-,-,-,-,../image/america.png,../image/spain.png,,,,,,,,,,,,,,,,,,,,,,2,0,2,0,0,0,0,0,,,,,,,,,,,,,,,,,,,442.1128081,442.3007485,442.3619829,443.0675063,447.3194548,['lshift'],[1.1819692080607638],,,,,,,,28,1,2023-05-05_15h19.23.523,exp_g2,2022.2.5,None
tr2,lt,tr,en,na,../practice_trial/audio/tr2.wav,Who is buying my car?,lt_tr_en_na_tr2,-,-,-,-,-,-,../image/america.png,../image/spain.png,,,,,,,,,,,,,,,,,,,,,,2,0,2,0,0,1,1,1,,,,,,,,,,,,,,,,,,,447.3194548,447.5526755,447.560492,448.3120221,452.581286,"['lshift', 'rshift']","[1.595863249967806, 2.090586374979466]",,,,,,,,28,1,2023-05-05_15h19.23.523,exp_g2,2022.2.5,None
tr3,lt,tr,sp,na,../practice_trial/audio/tr3.wav,¿Dónde está mi perro?,lt_tr_sp_na_tr3,-,-,-,-,-,-,../image/america.png,../image/spain.png,,,,,,,,,,,,,,,,,,,,,,2,0,2,0,0,2,2,2,,,,,,,,,,,,,,,,,,,452.581286,452.8017044,452.828689,453.5677425,457.8208252,['rshift'],[1.5715692089870572],,,,,,,,28,1,2023-05-05_15h19.23.523,exp_g2,2022.2.5,None
tr4,lt,tr,sp,na,../practice_trial/audio/tr4.wav,¿De quién es la bolsa?,lt_tr_sp_na_tr4,-,-,-,-,-,-,../image/america.png,../image/spain.png,,,,,,,,,,,,,,,,,,,,,,2,0,2,0,0,3,3,3,,,,,,,,,,,,,,,,,,,457.8208252,458.0524991,458.0654183,458.8120271,463.0638319,['rshift'],[1.499055749969557],,,,,,,,28,1,2023-05-05_15h19.23.523,exp_g2,2022.2.5,None
tr5,lt,tr,se,na,../practice_trial/audio/tr5.wav,¿Dónde encontraste sus donuts?,lt_tr_se_na_tr5,-,-,-,-,-,-,../image/america.png,../image/spain.png,,,,,,,,,,,,,,,,,,,,,,2,0,2,0,0,4,4,4,,,,,,,,,,,,,,,,,,,463.0638319,463.310598,463.310598,464.0619895,468.329014,['rshift'],[1.5451181249227375],,,,,,,,28,1,2023-05-05_15h19.23.523,exp_g2,2022.2.5,None
tr6,lt,tr,se,na,../practice_trial/audio/tr6.wav,¿Cuándo compraste tu sweater?,lt_tr_se_na_tr6,-,-,-,-,-,-,../image/america.png,../image/spain.png,,,,,,,,,,,,,,,,,,,,,,2,0,2,0,0,5,5,5,,,,,,,,,,,,,,,,,,,468.329014,468.5528608,468.5782855,469.3186462,473.5776068,['rshift'],[2.0735431669745594],,,,,,,,28,1,2023-05-05_15h19.23.523,exp_g2,2022.2.5,None
tr7,lt,tr,es,na,../practice_trial/audio/tr7.wav,Why do you have my camisa?,lt_tr_es_na_tr7,-,-,-,-,-,-,../image/america.png,../image/spain.png,,,,,,,,,,,,,,,,,,,,,,2,0,2,0,0,6,6,6,,,,,,,,,,,,,,,,,,,473.5776068,473.8120277,473.8187686,474.5619908,478.8282168,"['lshift', 'rshift']","[1.589068791945465, 3.6674285419285297]",,,,,,,,28,1,2023-05-05_15h19.23.523,exp_g2,2022.2.5,None
tr8,lt,tr,es,na,../practice_trial/audio/tr8.wav,Where did you find his chanclas?,lt_tr_es_na_tr8,-,-,-,-,-,-,../image/america.png,../image/spain.png,,,,,,,,,,,,,,,,,,,,,,2,0,2,0,0,7,7,7,,,,,,,,,,,,,,,,,,,478.8282168,479.0619374,479.0696502,479.8120105,484.0521863,"['lshift', 'rshift']","[1.9021923750406131, 2.243530417094007]",,,,,,,,28,1,2023-05-05_15h19.23.523,exp_g2,2022.2.5,None
,,,,,,,,,,,,,,,,,,,,,,,,,,,,,,,,,,,,,2,0,2,0,,,,,,,,,,,,,,,,,,,,,,,,,,,,,,,,,,,,,28,1,2023-05-05_15h19.23.523,exp_g2,2022.2.5,None
158,l1,t,es,f0c,../audio/158.wav,,l1_t_es_f0c_158,,,,,,,../image/america.png,../image/spain.png,,,2,america,spain,,,,1,,,,,,,,,,,,,,,,,,,,,0,0,0,52,,,,,,,,,,,,,,,,,,,,,,489.5930395,489.7779104,489.8322509,490.5324306,494.7984982,"['lshift', 'rshift']","[1.2450895410729572, 2.2087631250033155]",28,1,2023-05-05_15h19.23.523,exp_g2,2022.2.5,None
87,l1,f,sp,na,../audio/087.wav,,l1_f_sp_na_087,,,,,,,../image/america.png,../image/spain.png,,,2,america,spain,,,,None,,,,,,,,,,,,,,,,,,,,,0,1,1,26,,,,,,,,,,,,,,,,,,,,,,494.7984982,495.0283173,495.0441447,495.7828832,500.0520274,['rshift'],[1.5000440839212388],28,1,2023-05-05_15h19.23.523,exp_g2,2022.2.5,None
156,l1,t,es,f0c,../audio/156.wav,,l1_t_es_f0c_156,,,,,,,../image/america.png,../image/spain.png,,,2,america,spain,,,,1,,,,,,,,,,,,,,,,,,,,,0,2,2,50,,,,,,,,,,,,,,,,,,,,,,500.0520274,500.2780872,500.2935007,501.034436,505.2964994,"['lshift', 'rshift']","[1.4882315000286326, 2.2514472079928964]",28,1,2023-05-05_15h19.23.523,exp_g2,2022.2.5,None
20,l1,t,es,na,../audio/020.wav,,l1_t_es_na_020,,,,,,,../image/america.png,../image/spain.png,,,2,america,spain,,,,1,,,,,,,,,,,,,,,,,,,,,0,3,3,44,,,,,,,,,,,,,,,,,,,,,,505.2964994,505.5278674,505.5434321,506.28458,510.5446353,"['lshift', 'rshift']","[1.30634854210075, 2.389096667058766]",28,1,2023-05-05_15h19.23.523,exp_g2,2022.2.5,None
79,l1,f,se,na,../audio/079.wav,,l1_f_se_na_079,,,,,,,../image/america.png,../image/spain.png,,,2,america,spain,,,,1,,,,,,,,,,,,,,,,,,,,,0,4,4,18,,,,,,,,,,,,,,,,,,,,,,510.5446353,510.7778895,510.7847059,511.5352504,515.7956464,"['rshift', 'lshift']","[1.3404555839952081, 2.0648329589748755]",28,1,2023-05-05_15h19.23.523,exp_g2,2022.2.5,None
93,l1,f,sp,na,../audio/093.wav,,l1_f_sp_na_093,,,,,,,../image/america.png,../image/spain.png,,,2,america,spain,,,,None,,,,,,,,,,,,,,,,,,,,,0,5,5,32,,,,,,,,,,,,,,,,,,,,,,515.7956464,516.0277759,516.0447052,516.784703,521.045685,['rshift'],[1.3273310830118135],28,1,2023-05-05_15h19.23.523,exp_g2,2022.2.5,None
152,l1,t,es,f0c,../audio/152.wav,,l1_t_es_f0c_152,,,,,,,../image/america.png,../image/spain.png,,,2,america,spain,,,,1,,,,,,,,,,,,,,,,,,,,,0,6,6,46,,,,,,,,,,,,,,,,,,,,,,521.045685,521.2782475,521.2845419,522.0327104,526.2924357,"['lshift', 'rshift']","[1.4021387500688434, 2.3510908749885857]",28,1,2023-05-05_15h19.23.523,exp_g2,2022.2.5,None
64,l1,f,en,na,../audio/064.wav,,l1_f_en_na_064,,,,,,,../image/america.png,../image/spain.png,,,2,america,spain,,,,None,,,,,,,,,,,,,,,,,,,,,0,7,7,3,,,,,,,,,,,,,,,,,,,,,,526.2924357,526.5269155,526.5317845,527.2846651,531.543377,['lshift'],[1.1515827080002055],28,1,2023-05-05_15h19.23.523,exp_g2,2022.2.5,None
61,l1,f,en,na,../audio/061.wav,,l1_f_en_na_061,,,,,,,../image/america.png,../image/spain.png,,,2,america,spain,,,,None,,,,,,,,,,,,,,,,,,,,,0,8,8,0,,,,,,,,,,,,,,,,,,,,,,531.543377,531.7769503,531.7834638,532.5333665,536.795311,['lshift'],[1.3128469999646768],28,1,2023-05-05_15h19.23.523,exp_g2,2022.2.5,None
76,l1,f,se,na,../audio/076.wav,,l1_f_se_na_076,,,,,,,../image/america.png,../image/spain.png,,,2,america,spain,,,,1,,,,,,,,,,,,,,,,,,,,,0,9,9,15,,,,,,,,,,,,,,,,,,,,,,536.795311,537.0268157,537.0448662,537.7835024,542.0457526,['rshift'],[1.207857207977213],28,1,2023-05-05_15h19.23.523,exp_g2,2022.2.5,None
84,l1,f,se,na,../audio/084.wav,,l1_f_se_na_084,,,,,,,../image/america.png,../image/spain.png,,,2,america,spain,,,,1,,,,,,,,,,,,,,,,,,,,,0,10,10,23,,,,,,,,,,,,,,,,,,,,,,542.0457526,542.278061,542.2948046,543.0346498,547.2946243,"['rshift', 'lshift']","[1.450795124983415, 2.537261832971126]",28,1,2023-05-05_15h19.23.523,exp_g2,2022.2.5,None
95,l1,f,sp,na,../audio/095.wav,,l1_f_sp_na_095,,,,,,,../image/america.png,../image/spain.png,,,2,america,spain,,,,None,,,,,,,,,,,,,,,,,,,,,0,11,11,34,,,,,,,,,,,,,,,,,,,,,,547.2946243,547.5274379,547.5341809,548.284128,552.5433644,['rshift'],[1.5968476659618318],28,1,2023-05-05_15h19.23.523,exp_g2,2022.2.5,None
18,l1,t,es,na,../audio/018.wav,,l1_t_es_na_018,,,,,,,../image/america.png,../image/spain.png,,,2,america,spain,,,,1,,,,,,,,,,,,,,,,,,,,,0,12,12,42,,,,,,,,,,,,,,,,,,,,,,552.5433644,552.7774592,552.7839218,553.5343918,557.7972463,"['rshift', 'lshift']","[1.2205119170248508, 2.7288761250674725]",28,1,2023-05-05_15h19.23.523,exp_g2,2022.2.5,None
75,l1,f,en,na,../audio/075.wav,,l1_f_en_na_075,,,,,,,../image/america.png,../image/spain.png,,,2,america,spain,,,,None,,,,,,,,,,,,,,,,,,,,,0,13,13,14,,,,,,,,,,,,,,,,,,,,,,557.7972463,558.0273425,558.0436157,558.7828008,563.0444691,['lshift'],[2.7750441659009084],28,1,2023-05-05_15h19.23.523,exp_g2,2022.2.5,None
71,l1,f,en,na,../audio/071.wav,,l1_f_en_na_071,,,,,,,../image/america.png,../image/spain.png,,,2,america,spain,,,,None,,,,,,,,,,,,,,,,,,,,,0,14,14,10,,,,,,,,,,,,,,,,,,,,,,563.0444691,563.2782289,563.2847508,564.0339875,568.2959482,['lshift'],[1.8078138750279322],28,1,2023-05-05_15h19.23.523,exp_g2,2022.2.5,None
157,l1,t,es,f0c,../audio/157.wav,,l1_t_es_f0c_157,,,,,,,../image/america.png,../image/spain.png,,,2,america,spain,,,,1,,,,,,,,,,,,,,,,,,,,,0,15,15,51,,,,,,,,,,,,,,,,,,,,,,568.2959482,568.5275258,568.5443306,569.284645,573.5451765,"['lshift', 'rshift']","[1.2131880419328809, 2.1954336250200868]",28,1,2023-05-05_15h19.23.523,exp_g2,2022.2.5,None
74,l1,f,en,na,../audio/074.wav,,l1_f_en_na_074,,,,,,,../image/america.png,../image/spain.png,,,2,america,spain,,,,None,,,,,,,,,,,,,,,,,,,,,0,16,16,13,,,,,,,,,,,,,,,,,,,,,,573.5451765,573.7771495,573.7947571,574.5346525,578.7933917,['lshift'],[1.2186855409527197],28,1,2023-05-05_15h19.23.523,exp_g2,2022.2.5,None
94,l1,f,sp,na,../audio/094.wav,,l1_f_sp_na_094,,,,,,,../image/america.png,../image/spain.png,,,2,america,spain,,,,None,,,,,,,,,,,,,,,,,,,,,0,17,17,33,,,,,,,,,,,,,,,,,,,,,,578.7933917,579.0277735,579.0344895,579.7841233,584.0464221,['rshift'],[1.4838253339985386],28,1,2023-05-05_15h19.23.523,exp_g2,2022.2.5,None
72,l1,f,en,na,../audio/072.wav,,l1_f_en_na_072,,,,,,,../image/america.png,../image/spain.png,,,2,america,spain,,,,None,,,,,,,,,,,,,,,,,,,,,0,18,18,11,,,,,,,,,,,,,,,,,,,,,,584.0464221,584.277777,584.2934694,585.0334766,589.2947685,['lshift'],[1.2060993750346825],28,1,2023-05-05_15h19.23.523,exp_g2,2022.2.5,None
13,l1,t,es,na,../audio/013.wav,,l1_t_es_na_013,,,,,,,../image/america.png,../image/spain.png,,,2,america,spain,,,,1,,,,,,,,,,,,,,,,,,,,,0,19,19,37,,,,,,,,,,,,,,,,,,,,,,589.2947685,589.5273336,589.5339654,590.2837585,594.5454853,"['lshift', 'rshift']","[1.5070403330028057, 2.6521257910644636]",28,1,2023-05-05_15h19.23.523,exp_g2,2022.2.5,None
80,l1,f,se,na,../audio/080.wav,,l1_f_se_na_080,,,,,,,../image/america.png,../image/spain.png,,,2,america,spain,,,,1,,,,,,,,,,,,,,,,,,,,,0,20,20,19,,,,,,,,,,,,,,,,,,,,,,594.5454853,594.7778689,594.7847228,595.534356,599.7960412,"['rshift', 'lshift']","[1.5014194170944393, 2.303510917001404]",28,1,2023-05-05_15h19.23.523,exp_g2,2022.2.5,None
85,l1,f,se,na,../audio/085.wav,,l1_f_se_na_085,,,,,,,../image/america.png,../image/spain.png,,,2,america,spain,,,,1,,,,,,,,,,,,,,,,,,,,,0,21,21,24,,,,,,,,,,,,,,,,,,,,,,599.7960412,600.0277332,600.0444028,600.7833457,605.0428257,"['rshift', 'lshift']","[1.3849892080761492, 2.501566707971506]",28,1,2023-05-05_15h19.23.523,exp_g2,2022.2.5,None
17,l1,t,es,na,../audio/017.wav,,l1_t_es_na_017,,,,,,,../image/america.png,../image/spain.png,,,2,america,spain,,,,1,,,,,,,,,,,,,,,,,,,,,0,22,22,41,,,,,,,,,,,,,,,,,,,,,,605.0428257,605.2771346,605.2837064,606.0340843,610.2931723,"['lshift', 'rshift']","[1.5247877499787137, 2.4675807079765946]",28,1,2023-05-05_15h19.23.523,exp_g2,2022.2.5,None
66,l1,f,en,na,../audio/066.wav,,l1_f_en_na_066,,,,,,,../image/america.png,../image/spain.png,,,2,america,spain,,,,None,,,,,,,,,,,,,,,,,,,,,0,23,23,5,,,,,,,,,,,,,,,,,,,,,,610.2931723,610.5264243,610.533822,611.2844172,615.5467093,['lshift'],[1.4092614579712972],28,1,2023-05-05_15h19.23.523,exp_g2,2022.2.5,None
77,l1,f,se,na,../audio/077.wav,,l1_f_se_na_077,,,,,,,../image/america.png,../image/spain.png,,,2,america,spain,,,,1,,,,,,,,,,,,,,,,,,,,,0,24,24,16,,,,,,,,,,,,,,,,,,,,,,615.5467093,615.7767052,615.7942061,616.5344219,620.7943798,"['rshift', 'lshift']","[1.6625269169453532, 2.3553653339622542]",28,1,2023-05-05_15h19.23.523,exp_g2,2022.2.5,None
86,l1,f,sp,na,../audio/086.wav,,l1_f_sp_na_086,,,,,,,../image/america.png,../image/spain.png,,,2,america,spain,,,,None,,,,,,,,,,,,,,,,,,,,,0,25,25,25,,,,,,,,,,,,,,,,,,,,,,620.7943798,621.0274765,621.0341635,621.7834703,626.0435965,['rshift'],[1.4565551669802517],28,1,2023-05-05_15h19.23.523,exp_g2,2022.2.5,None
155,l1,t,es,f0c,../audio/155.wav,,l1_t_es_f0c_155,,,,,,,../image/america.png,../image/spain.png,,,2,america,spain,,,,1,,,,,,,,,,,,,,,,,,,,,0,26,26,49,,,,,,,,,,,,,,,,,,,,,,626.0435965,626.2776445,626.284124,627.034252,631.2948898,"['lshift', 'rshift']","[1.4962552500655875, 2.1342154170852154]",28,1,2023-05-05_15h19.23.523,exp_g2,2022.2.5,None
160,l1,t,es,f0c,../audio/160.wav,,l1_t_es_f0c_160,,,,,,,../image/america.png,../image/spain.png,,,2,america,spain,,,,1,,,,,,,,,,,,,,,,,,,,,0,27,27,54,,,,,,,,,,,,,,,,,,,,,,631.2948898,631.5275803,631.5342353,632.2834983,636.5441768,"['lshift', 'rshift']","[1.6120602079899982, 2.6619776249863207]",28,1,2023-05-05_15h19.23.523,exp_g2,2022.2.5,None
151,l1,t,es,f0c,../audio/151.wav,,l1_t_es_f0c_151,,,,,,,../image/america.png,../image/spain.png,,,2,america,spain,,,,1,,,,,,,,,,,,,,,,,,,,,0,28,28,45,,,,,,,,,,,,,,,,,,,,,,636.5441768,636.7770754,636.7829578,637.5324981,641.795479,"['lshift', 'rshift']","[1.5235517079709098, 2.134467708063312]",28,1,2023-05-05_15h19.23.523,exp_g2,2022.2.5,None
81,l1,f,se,na,../audio/081.wav,,l1_f_se_na_081,,,,,,,../image/america.png,../image/spain.png,,,2,america,spain,,,,1,,,,,,,,,,,,,,,,,,,,,0,29,29,20,,,,,,,,,,,,,,,,,,,,,,641.795479,642.02616,642.0427902,642.7837882,647.0449561,"['lshift', 'rshift', 'lshift']","[1.925396791077219, 2.3682726660044864, 3.5814003749983385]",28,1,2023-05-05_15h19.23.523,exp_g2,2022.2.5,None
67,l1,f,en,na,../audio/067.wav,,l1_f_en_na_067,,,,,,,../image/america.png,../image/spain.png,,,2,america,spain,,,,None,,,,,,,,,,,,,,,,,,,,,0,30,30,6,,,,,,,,,,,,,,,,,,,,,,647.0449561,647.2767902,647.2927912,648.0331976,652.2940004,['lshift'],[2.1306730000069365],28,1,2023-05-05_15h19.23.523,exp_g2,2022.2.5,None
91,l1,f,sp,na,../audio/091.wav,,l1_f_sp_na_091,,,,,,,../image/america.png,../image/spain.png,,,2,america,spain,,,,None,,,,,,,,,,,,,,,,,,,,,0,31,31,30,,,,,,,,,,,,,,,,,,,,,,652.2940004,652.5262801,652.5441392,653.2838907,657.5426349,['rshift'],[1.7311622080160305],28,1,2023-05-05_15h19.23.523,exp_g2,2022.2.5,None
11,l1,t,es,na,../audio/011.wav,,l1_t_es_na_011,,,,,,,../image/america.png,../image/spain.png,,,2,america,spain,,,,1,,,,,,,,,,,,,,,,,,,,,0,32,32,35,,,,,,,,,,,,,,,,,,,,,,657.5426349,657.7768755,657.7839215,658.533799,662.7979398,"['lshift', 'rshift']","[1.6874015000648797, 2.624867625068873]",28,1,2023-05-05_15h19.23.523,exp_g2,2022.2.5,None
15,l1,t,es,na,../audio/015.wav,,l1_t_es_na_015,,,,,,,../image/america.png,../image/spain.png,,,2,america,spain,,,,1,,,,,,,,,,,,,,,,,,,,,0,33,33,39,,,,,,,,,,,,,,,,,,,,,,662.7979398,663.0271635,663.0440084,663.783556,668.0440437,"['lshift', 'rshift']","[1.5852735829539597, 2.217871750006452]",28,1,2023-05-05_15h19.23.523,exp_g2,2022.2.5,None
63,l1,f,en,na,../audio/063.wav,,l1_f_en_na_063,,,,,,,../image/america.png,../image/spain.png,,,2,america,spain,,,,None,,,,,,,,,,,,,,,,,,,,,0,34,34,2,,,,,,,,,,,,,,,,,,,,,,668.0440437,668.276012,668.2939111,669.0336026,673.2927903,['lshift'],[1.5520654999418184],28,1,2023-05-05_15h19.23.523,exp_g2,2022.2.5,None
19,l1,t,es,na,../audio/019.wav,,l1_t_es_na_019,,,,,,,../image/america.png,../image/spain.png,,,2,america,spain,,,,1,,,,,,,,,,,,,,,,,,,,,0,35,35,43,,,,,,,,,,,,,,,,,,,,,,673.2927903,673.5266933,673.5332989,674.2836838,678.5461968,"['lshift', 'rshift']","[1.4301562090404332, 2.724822917021811]",28,1,2023-05-05_15h19.23.523,exp_g2,2022.2.5,None
90,l1,f,sp,na,../audio/090.wav,,l1_f_sp_na_090,,,,,,,../image/america.png,../image/spain.png,,,2,america,spain,,,,None,,,,,,,,,,,,,,,,,,,,,0,36,36,29,,,,,,,,,,,,,,,,,,,,,,678.5461968,678.7771022,678.793132,679.5308359,683.7948019,['rshift'],[1.54161487496458],28,1,2023-05-05_15h19.23.523,exp_g2,2022.2.5,None
82,l1,f,se,na,../audio/082.wav,,l1_f_se_na_082,,,,,,,../image/america.png,../image/spain.png,,,2,america,spain,,,,1,,,,,,,,,,,,,,,,,,,,,0,37,37,21,,,,,,,,,,,,,,,,,,,,,,683.7948019,684.0271272,684.0437756,684.7857952,689.0433155,"['rshift', 'lshift']","[1.280846125097014, 2.6094219170045108]",28,1,2023-05-05_15h19.23.523,exp_g2,2022.2.5,None
83,l1,f,se,na,../audio/083.wav,,l1_f_se_na_083,,,,,,,../image/america.png,../image/spain.png,,,2,america,spain,,,,1,,,,,,,,,,,,,,,,,,,,,0,38,38,22,,,,,,,,,,,,,,,,,,,,,,689.0433155,689.2767012,689.2837617,690.0343703,694.2982308,"['rshift', 'lshift']","[1.459513375069946, 2.963291750056669]",28,1,2023-05-05_15h19.23.523,exp_g2,2022.2.5,None
14,l1,t,es,na,../audio/014.wav,,l1_t_es_na_014,,,,,,,../image/america.png,../image/spain.png,,,2,america,spain,,,,1,,,,,,,,,,,,,,,,,,,,,0,39,39,38,,,,,,,,,,,,,,,,,,,,,,694.2982308,694.526668,694.5432555,695.2835711,699.5429555,"['rshift', 'lshift', 'rshift']","[1.3937012500828132, 1.9286701250821352, 2.904295042040758]",28,1,2023-05-05_15h19.23.523,exp_g2,2022.2.5,None
12,l1,t,es,na,../audio/012.wav,,l1_t_es_na_012,,,,,,,../image/america.png,../image/spain.png,,,2,america,spain,,,,1,,,,,,,,,,,,,,,,,,,,,0,40,40,36,,,,,,,,,,,,,,,,,,,,,,699.5429555,699.7770067,699.7839328,700.531179,704.7960223,"['lshift', 'rshift']","[1.8183140829205513, 2.7090959169436246]",28,1,2023-05-05_15h19.23.523,exp_g2,2022.2.5,None
88,l1,f,sp,na,../audio/088.wav,,l1_f_sp_na_088,,,,,,,../image/america.png,../image/spain.png,,,2,america,spain,,,,None,,,,,,,,,,,,,,,,,,,,,0,41,41,27,,,,,,,,,,,,,,,,,,,,,,704.7960223,705.0270324,705.0435827,705.7836295,710.0445287,['rshift'],[1.5960334170376882],28,1,2023-05-05_15h19.23.523,exp_g2,2022.2.5,None
154,l1,t,es,f0c,../audio/154.wav,,l1_t_es_f0c_154,,,,,,,../image/america.png,../image/spain.png,,,2,america,spain,,,,1,,,,,,,,,,,,,,,,,,,,,0,42,42,48,,,,,,,,,,,,,,,,,,,,,,710.0445287,710.2765567,710.2937523,711.0336098,715.3021132,"['lshift', 'rshift']","[1.8266665829578415, 2.654489165986888]",28,1,2023-05-05_15h19.23.523,exp_g2,2022.2.5,None
65,l1,f,en,na,../audio/065.wav,,l1_f_en_na_065,,,,,,,../image/america.png,../image/spain.png,,,2,america,spain,,,,None,,,,,,,,,,,,,,,,,,,,,0,43,43,4,,,,,,,,,,,,,,,,,,,,,,715.3021132,715.5253984,715.5504095,716.2839515,720.5452315,['lshift'],[1.2024891660548747],28,1,2023-05-05_15h19.23.523,exp_g2,2022.2.5,None
73,l1,f,en,na,../audio/073.wav,,l1_f_en_na_073,,,,,,,../image/america.png,../image/spain.png,,,2,america,spain,,,,None,,,,,,,,,,,,,,,,,,,,,0,44,44,12,,,,,,,,,,,,,,,,,,,,,,720.5452315,720.7763333,720.7937972,721.5319045,725.7952824,['lshift'],[1.1847663749940693],28,1,2023-05-05_15h19.23.523,exp_g2,2022.2.5,None
16,l1,t,es,na,../audio/016.wav,,l1_t_es_na_016,,,,,,,../image/america.png,../image/spain.png,,,2,america,spain,,,,1,,,,,,,,,,,,,,,,,,,,,0,45,45,40,,,,,,,,,,,,,,,,,,,,,,725.7952824,726.0262356,726.0432362,726.7825087,731.0417258,"['lshift', 'rshift']","[1.370475957985036, 3.0292102919192985]",28,1,2023-05-05_15h19.23.523,exp_g2,2022.2.5,None
153,l1,t,es,f0c,../audio/153.wav,,l1_t_es_f0c_153,,,,,,,../image/america.png,../image/spain.png,,,2,america,spain,,,,1,,,,,,,,,,,,,,,,,,,,,0,46,46,47,,,,,,,,,,,,,,,,,,,,,,731.0417258,731.2768009,731.2833303,732.0314173,736.2961255,"['lshift', 'rshift']","[1.9069115419406444, 2.91100037493743]",28,1,2023-05-05_15h19.23.523,exp_g2,2022.2.5,None
92,l1,f,sp,na,../audio/092.wav,,l1_f_sp_na_092,,,,,,,../image/america.png,../image/spain.png,,,2,america,spain,,,,None,,,,,,,,,,,,,,,,,,,,,0,47,47,31,,,,,,,,,,,,,,,,,,,,,,736.2961255,736.526702,736.5435074,737.2836995,741.5447402,['rshift'],[1.517622375045903],28,1,2023-05-05_15h19.23.523,exp_g2,2022.2.5,None
69,l1,f,en,na,../audio/069.wav,,l1_f_en_na_069,,,,,,,../image/america.png,../image/spain.png,,,2,america,spain,,,,None,,,,,,,,,,,,,,,,,,,,,0,48,48,8,,,,,,,,,,,,,,,,,,,,,,741.5447402,741.7767135,741.7923428,742.5339,746.7999214,['lshift'],[1.423205583007075],28,1,2023-05-05_15h19.23.523,exp_g2,2022.2.5,None
89,l1,f,sp,na,../audio/089.wav,,l1_f_sp_na_089,,,,,,,../image/america.png,../image/spain.png,,,2,america,spain,,,,None,,,,,,,,,,,,,,,,,,,,,0,49,49,28,,,,,,,,,,,,,,,,,,,,,,746.7999214,747.0265765,747.043208,747.7818154,752.045038,['rshift'],[1.4582544589648023],28,1,2023-05-05_15h19.23.523,exp_g2,2022.2.5,None
68,l1,f,en,na,../audio/068.wav,,l1_f_en_na_068,,,,,,,../image/america.png,../image/spain.png,,,2,america,spain,,,,None,,,,,,,,,,,,,,,,,,,,,0,50,50,7,,,,,,,,,,,,,,,,,,,,,,752.045038,752.2765708,752.2934267,753.0328141,757.2983167,['lshift'],[1.358227875083685],28,1,2023-05-05_15h19.23.523,exp_g2,2022.2.5,None
70,l1,f,en,na,../audio/070.wav,,l1_f_en_na_070,,,,,,,../image/america.png,../image/spain.png,,,2,america,spain,,,,None,,,,,,,,,,,,,,,,,,,,,0,51,51,9,,,,,,,,,,,,,,,,,,,,,,757.2983167,757.5280485,757.5426994,758.2839831,762.5514932,['lshift'],[1.8327119580935687],28,1,2023-05-05_15h19.23.523,exp_g2,2022.2.5,None
62,l1,f,en,na,../audio/062.wav,,l1_f_en_na_062,,,,,,,../image/america.png,../image/spain.png,,,2,america,spain,,,,None,,,,,,,,,,,,,,,,,,,,,0,52,52,1,,,,,,,,,,,,,,,,,,,,,,762.5514932,762.7766507,762.7922206,763.5326592,767.7966568,['lshift'],[1.3559672499541193],28,1,2023-05-05_15h19.23.523,exp_g2,2022.2.5,None
78,l1,f,se,na,../audio/078.wav,,l1_f_se_na_078,,,,,,,../image/america.png,../image/spain.png,,,2,america,spain,,,,1,,,,,,,,,,,,,,,,,,,,,0,53,53,17,,,,,,,,,,,,,,,,,,,,,,767.7966568,768.0265548,768.042771,768.7826161,773.0497215,['rshift'],[1.3210532079683617],28,1,2023-05-05_15h19.23.523,exp_g2,2022.2.5,None
159,l1,t,es,f0c,../audio/159.wav,,l1_t_es_f0c_159,,,,,,,../image/america.png,../image/spain.png,,,2,america,spain,,,,1,,,,,,,,,,,,,,,,,,,,,0,54,54,53,,,,,,,,,,,,,,,,,,,,,,773.0497215,773.2767469,773.2933683,774.0337462,778.2664712,"['lshift', 'rshift']","[1.2372437079902738, 2.416614415938966]",28,1,2023-05-05_15h19.23.523,exp_g2,2022.2.5,None