num,list,cond,lang,type,sound_dir,phr,sent_code,mat,mat_num,emb_num,emb,cut,mat_f0_c,left,right,correct_img,correct_key,exp_num,image,image_alt,left_img,right_img,image_dir,cs,exp1_retrial.thisRepN,exp1_retrial.thisTrialN,exp1_retrial.thisN,exp1_retrial.thisIndex,exp1_trial_loop.thisRepN,exp1_trial_loop.thisTrialN,exp1_trial_loop.thisN,exp1_trial_loop.thisIndex,exp1_loop.thisRepN,exp1_loop.thisTrialN,exp1_loop.thisN,exp1_loop.thisIndex,exp2_retrial.thisRepN,exp2_retrial.thisTrialN,exp2_retrial.thisN,exp2_retrial.thisIndex,exp2_trial_loop.thisRepN,exp2_trial_loop.thisTrialN,exp2_trial_loop.thisN,exp2_trial_loop.thisIndex,exp2_loop.thisRepN,exp2_loop.thisTrialN,exp2_loop.thisN,exp2_loop.thisIndex,exp1_trial_key.started,exp1_trial_sound.started,exp1_trial_key.keys,exp1_trial_key.rt,exp1_key.started,exp1_key.keys,exp1_key.corr,exp1_key.rt,exp1_sound.started,exp2_trial_key.started,exp2_trial_sound.started,exp2_trial_key.keys,exp2_trial_key.rt,exp2_key.started,exp2_sound.started,exp2_key.keys,exp2_key.rt,participant,session,date,expName,psychopyVersion,frameRate,
tr1,lt,tr,en,na,../practice_trial/audio/tr1.wav,Where are your kids?,lt_tr_en_na_tr1,-,-,-,-,-,-,../image/kids.png,../image/plates.png,kids,lshift,,,,,,,,0,0,0,0,0,0,0,0,,,,,,,,,,,,,,,,,16.321693082980346,17.255704166662568,['lshift'],[1.8359324170160107],,,,,,,,,,,,,,021,001,2023-04-20_13h33.25.605,exp_g1,2022.2.5,None,
tr2,lt,tr,en,na,../practice_trial/audio/tr2.wav,Who is buying my car?,lt_tr_en_na_tr2,-,-,-,-,-,-,../image/bag.png,../image/car.png,car,rshift,,,,,,,,0,0,0,0,0,1,1,1,,,,,,,,,,,,,,,,,18.205315082974266,19.173271374664424,['rshift'],[2.112439666001592],,,,,,,,,,,,,,021,001,2023-04-20_13h33.25.605,exp_g1,2022.2.5,None,
tr3,lt,tr,sp,na,../practice_trial/audio/tr3.wav,¿Dónde está mi perro?,lt_tr_sp_na_tr3,-,-,-,-,-,-,../image/dog.png,../image/grandma.png,dog,lshift,,,,,,,,0,0,0,0,0,2,2,2,,,,,,,,,,,,,,,,,20.36310529196635,21.32346666662876,['lshift'],[1.9816986250225455],,,,,,,,,,,,,,021,001,2023-04-20_13h33.25.605,exp_g1,2022.2.5,None,
tr4,lt,tr,sp,na,../practice_trial/audio/tr4.wav,¿De quién es la bolsa?,lt_tr_sp_na_tr4,-,-,-,-,-,-,../image/shirt.png,../image/bag.png,bag,rshift,,,,,,,,0,0,0,0,0,3,3,3,,,,,,,,,,,,,,,,,22.38714212499326,23.35626104165955,['rshift'],[2.517944040999282],,,,,,,,,,,,,,021,001,2023-04-20_13h33.25.605,exp_g1,2022.2.5,None,
tr5,lt,tr,se,na,../practice_trial/audio/tr5.wav,¿Dónde encontraste sus donuts?,lt_tr_se_na_tr5,-,-,-,-,-,-,../image/donut.png,../image/cups.png,donut,lshift,,,,,,,,0,0,0,0,0,4,4,4,,,,,,,,,,,,,,,,,24.950476291996893,25.916689916634155,['lshift'],[2.597298124979716],,,,,,,,,,,,,,021,001,2023-04-20_13h33.25.605,exp_g1,2022.2.5,None,
tr6,lt,tr,se,na,../practice_trial/audio/tr6.wav,¿Cuándo compraste tu sweater?,lt_tr_se_na_tr6,-,-,-,-,-,-,../image/chair.png,../image/sweater.png,sweater,rshift,,,,,,,,0,0,0,0,0,5,5,5,,,,,,,,,,,,,,,,,27.59221508295741,28.549973249672135,['rshift'],[2.5376279579941183],,,,,,,,,,,,,,021,001,2023-04-20_13h33.25.605,exp_g1,2022.2.5,None,
tr7,lt,tr,es,na,../practice_trial/audio/tr7.wav,Why do you have my camisa?,lt_tr_es_na_tr7,-,-,-,-,-,-,../image/shirt.png,../image/wallet.png,shirt,lshift,,,,,,,,0,0,0,0,0,6,6,6,,,,,,,,,,,,,,,,,30.17857870797161,31.13351333362904,['lshift'],[2.527285291987937],,,,,,,,,,,,,,021,001,2023-04-20_13h33.25.605,exp_g1,2022.2.5,None,
tr8,lt,tr,es,na,../practice_trial/audio/tr8.wav,Where did you find his chanclas?,lt_tr_es_na_tr8,-,-,-,-,-,-,../image/key.png,../image/flipflops.png,flipflops,rshift,,,,,,,,0,0,0,0,0,7,7,7,,,,,,,,,,,,,,,,,32.752235874999315,33.71632383362545,['rshift'],[2.290787125006318],,,,,,,,,,,,,,021,001,2023-04-20_13h33.25.605,exp_g1,2022.2.5,None,
,,,,,,,,,,,,,,,,,,,,,,,,,0,0,0,0,,,,,,,,,,,,,,,,,,,,,,,,,,,,,,,,,,,,,,021,001,2023-04-20_13h33.25.605,exp_g1,2022.2.5,None,
19.0,l1,t,es,na,../audio/019.wav,,l1_t_es_na_019,,,,,,,../image/boy.png,../image/dog.png,boy,lshift,1,boy,dog,boy,dog,None,,,,,,,,,,0,0,0,43,,,,,,,,,,,,,,,,,41.94659220799804,lshift,1,-0.3527878750464879,,,,,,,,,,021,001,2023-04-20_13h33.25.605,exp_g1,2022.2.5,None,
133.0,l1,t,es,f0u,../audio/133.wav,,l1_t_es_f0u_133,,,,,,,../image/cellphone.png,../image/book.png,cellphone,lshift,1,cellphone,book,cellphone,book,None,,,,,,,,,,0,1,1,47,,,,,,,,,,,,,,,,,41.97511754196603,lshift,1,2.608014873985667,42.94936958363202,,,,,,,,,021,001,2023-04-20_13h33.25.605,exp_g1,2022.2.5,None,
64.0,l1,f,en,na,../audio/064.wav,,l1_f_en_na_064,,,,,,,../image/wallet.png,../image/key.png,wallet,lshift,1,wallet,key,wallet,key,None,,,,,,,,,,0,2,2,3,,,,,,,,,,,,,,,,,44.62877737497911,lshift,1,1.9383583739981987,45.5882513336294,,,,,,,,,021,001,2023-04-20_13h33.25.605,exp_g1,2022.2.5,None,
135.0,l1,t,es,f0u,../audio/135.wav,,l1_t_es_f0u_135,,,,,,,../image/flipflops.png,../image/flower.png,flipflops,lshift,1,flipflops,flower,flipflops,flower,None,,,,,,,,,,0,3,3,49,,,,,,,,,,,,,,,,,46.61340604198631,lshift,1,2.4965163750457577,47.583191874673744,,,,,,,,,021,001,2023-04-20_13h33.25.605,exp_g1,2022.2.5,None,
140.0,l1,t,es,f0u,../audio/140.wav,,l1_t_es_f0u_140,,,,,,,../image/ring.png,../image/bracelet.png,bracelet,rshift,1,bracelet,ring,ring,bracelet,None,,,,,,,,,,0,4,4,54,,,,,,,,,,,,,,,,,49.15759508300107,rshift,1,3.5496948329964653,50.12182266667175,,,,,,,,,021,001,2023-04-20_13h33.25.605,exp_g1,2022.2.5,None,
80.0,l1,f,se,na,../audio/080.wav,,l1_f_se_na_080,,,,,,,../image/mouse.png,../image/rat.png,mouse,lshift,1,mouse,rat,mouse,rat,None,,,,,,,,,,0,5,5,19,,,,,,,,,,,,,,,,,52.763454791973345,lshift,1,2.221578833006788,53.722616124669244,,,,,,,,,021,001,2023-04-20_13h33.25.605,exp_g1,2022.2.5,None,
66.0,l1,f,en,na,../audio/066.wav,,l1_f_en_na_066,,,,,,,../image/bag.png,../image/scarf.png,bag,lshift,1,bag,scarf,bag,scarf,None,,,,,,,,,,0,6,6,5,,,,,,,,,,,,,,,,,55.03469162498368,lshift,1,2.5655902909929864,55.989707166623944,,,,,,,,,021,001,2023-04-20_13h33.25.605,exp_g1,2022.2.5,None,
134.0,l1,t,es,f0u,../audio/134.wav,,l1_t_es_f0u_134,,,,,,,../image/basket.png,../image/truck.png,truck,rshift,1,truck,basket,basket,truck,None,,,,,,,,,,0,7,7,48,,,,,,,,,,,,,,,,,57.64900379197206,rshift,1,3.654803665995132,58.60608299967522,,,,,,,,,021,001,2023-04-20_13h33.25.605,exp_g1,2022.2.5,None,
85.0,l1,f,se,na,../audio/085.wav,,l1_f_se_na_085,,,,,,,../image/loafers.png,../image/sneakers.png,sneakers,rshift,1,sneakers,loafers,loafers,sneakers,None,,,,,,,,,,0,8,8,24,,,,,,,,,,,,,,,,,61.35496366699226,rshift,1,2.782168374978937,62.31647545862167,,,,,,,,,021,001,2023-04-20_13h33.25.605,exp_g1,2022.2.5,None,
72.0,l1,f,en,na,../audio/072.wav,,l1_f_en_na_072,,,,,,,../image/dog.png,../image/fish.png,dog,lshift,1,dog,fish,dog,fish,None,,,,,,,,,,0,9,9,11,,,,,,,,,,,,,,,,,64.18178029195406,lshift,1,2.1811726659652777,65.14991491666684,,,,,,,,,021,001,2023-04-20_13h33.25.605,exp_g1,2022.2.5,None,
81.0,l1,f,se,na,../audio/081.wav,,l1_f_se_na_081,,,,,,,../image/boxers.png,../image/sweatpants.png,sweatpants,rshift,1,sweatpants,boxers,boxers,sweatpants,None,,,,,,,,,,0,10,10,20,,,,,,,,,,,,,,,,,66.41415954200784,lshift,0,3.1819732079748064,67.37243091664665,,,,,,,,,021,001,2023-04-20_13h33.25.605,exp_g1,2022.2.5,None,
76.0,l1,f,se,na,../audio/076.wav,,l1_f_se_na_076,,,,,,,../image/hotdog.png,../image/burger.png,hotdog,lshift,1,hotdog,burger,hotdog,burger,None,,,,,,,,,,0,11,11,15,,,,,,,,,,,,,,,,,69.64980516699143,lshift,1,2.283365124021657,70.60590620863174,,,,,,,,,021,001,2023-04-20_13h33.25.605,exp_g1,2022.2.5,None,
79.0,l1,f,se,na,../audio/079.wav,,l1_f_se_na_079,,,,,,,../image/sweatpants.png,../image/jeans.png,jeans,rshift,1,jeans,sweatpants,sweatpants,jeans,None,,,,,,,,,,0,12,12,18,,,,,,,,,,,,,,,,,71.97664537496166,rshift,1,2.3773189579951577,72.94969308365059,,,,,,,,,021,001,2023-04-20_13h33.25.605,exp_g1,2022.2.5,None,
17.0,l1,t,es,na,../audio/017.wav,,l1_t_es_na_017,,,,,,,../image/jug.png,../image/cat.png,jug,lshift,1,jug,cat,jug,cat,None,,,,,,,,,,0,13,13,41,,,,,,,,,,,,,,,,,74.39913941698615,lshift,1,4.1930760410032235,75.3666364586718,,,,,,,,,021,001,2023-04-20_13h33.25.605,exp_g1,2022.2.5,None,
91.0,l1,f,sp,na,../audio/091.wav,,l1_f_sp_na_091,,,,,,,../image/backpack.png,../image/bracelet.png,bracelet,rshift,1,bracelet,backpack,backpack,bracelet,None,,,,,,,,,,0,14,14,30,,,,,,,,,,,,,,,,,78.64381233300082,lshift,0,2.674347457999829,79.60636395862481,,,,,,,,,021,001,2023-04-20_13h33.25.605,exp_g1,2022.2.5,None,
11.0,l1,t,es,na,../audio/011.wav,,l1_t_es_na_011,,,,,,,../image/armchair.png,../image/bed.png,armchair,lshift,1,armchair,bed,armchair,bed,None,,,,,,,,,,0,15,15,35,,,,,,,,,,,,,,,,,81.36991679196944,lshift,1,3.0371376660186797,82.33336712466941,,,,,,,,,021,001,2023-04-20_13h33.25.605,exp_g1,2022.2.5,None,
93.0,l1,f,sp,na,../audio/093.wav,,l1_f_sp_na_093,,,,,,,../image/boy.png,../image/book.png,book,rshift,1,book,boy,boy,book,None,,,,,,,,,,0,16,16,32,,,,,,,,,,,,,,,,,84.45605462498497,rshift,1,2.2236845410079695,85.41580299963631,,,,,,,,,021,001,2023-04-20_13h33.25.605,exp_g1,2022.2.5,None,
74.0,l1,f,en,na,../audio/074.wav,,l1_f_en_na_074,,,,,,,../image/boy.png,../image/woman.png,boy,lshift,1,boy,woman,boy,woman,None,,,,,,,,,,0,17,17,13,,,,,,,,,,,,,,,,,86.72883199999342,lshift,1,1.890186124946922,87.68909904163253,,,,,,,,,021,001,2023-04-20_13h33.25.605,exp_g1,2022.2.5,None,
18.0,l1,t,es,na,../audio/018.wav,,l1_t_es_na_018,,,,,,,../image/cups.png,../image/napkins.png,napkins,rshift,1,napkins,cups,cups,napkins,None,,,,,,,,,,0,18,18,42,,,,,,,,,,,,,,,,,88.6667627079878,rshift,1,3.0501421660301276,89.63252441666943,,,,,,,,,021,001,2023-04-20_13h33.25.605,exp_g1,2022.2.5,None,
69.0,l1,f,en,na,../audio/069.wav,,l1_f_en_na_069,,,,,,,../image/bag.png,../image/shirt.png,shirt,rshift,1,shirt,bag,bag,shirt,None,,,,,,,,,,0,19,19,8,,,,,,,,,,,,,,,,,91.76306404196657,rshift,1,2.3588585410034284,92.73240854166603,,,,,,,,,021,001,2023-04-20_13h33.25.605,exp_g1,2022.2.5,None,
70.0,l1,f,en,na,../audio/070.wav,,l1_f_en_na_070,,,,,,,../image/computer.png,../image/bed.png,computer,lshift,1,computer,bed,computer,bed,None,,,,,,,,,,0,20,20,9,,,,,,,,,,,,,,,,,94.16475508298026,lshift,1,2.4704021670040675,95.13305233366943,,,,,,,,,021,001,2023-04-20_13h33.25.605,exp_g1,2022.2.5,None,
86.0,l1,f,sp,na,../audio/086.wav,,l1_f_sp_na_086,,,,,,,../image/plates.png,../image/glasses.png,plates,lshift,1,plates,glasses,plates,glasses,None,,,,,,,,,,0,21,21,25,,,,,,,,,,,,,,,,,96.6796899579931,lshift,1,2.2377944159670733,97.64952391665817,,,,,,,,,021,001,2023-04-20_13h33.25.605,exp_g1,2022.2.5,None,
67.0,l1,f,en,na,../audio/067.wav,,l1_f_en_na_067,,,,,,,../image/beer.png,../image/glasses.png,glasses,rshift,1,glasses,beer,beer,glasses,None,,,,,,,,,,0,22,22,6,,,,,,,,,,,,,,,,,98.95970445795683,rshift,1,2.457005875010509,99.93280279165289,,,,,,,,,021,001,2023-04-20_13h33.25.605,exp_g1,2022.2.5,None,
12.0,l1,t,es,na,../audio/012.wav,,l1_t_es_na_012,,,,,,,../image/newspaper.png,../image/book.png,book,rshift,1,book,newspaper,newspaper,book,None,,,,,,,,,,0,23,23,36,,,,,,,,,,,,,,,,,101.46753337496193,rshift,1,2.7725652079680003,102.43278404162653,,,,,,,,,021,001,2023-04-20_13h33.25.605,exp_g1,2022.2.5,None,
14.0,l1,t,es,na,../audio/014.wav,,l1_t_es_na_014,,,,,,,../image/book.png,../image/key.png,key,rshift,1,key,book,book,key,None,,,,,,,,,,0,24,24,38,,,,,,,,,,,,,,,,,104.28200691699749,rshift,1,2.3292843750095926,105.24911774963063,,,,,,,,,021,001,2023-04-20_13h33.25.605,exp_g1,2022.2.5,None,
95.0,l1,f,sp,na,../audio/095.wav,,l1_f_sp_na_095,,,,,,,../image/socks.png,../image/key.png,key,rshift,1,key,socks,socks,key,None,,,,,,,,,,0,25,25,34,,,,,,,,,,,,,,,,,106.65248024999164,rshift,1,2.1144140829565004,107.61614487466092,,,,,,,,,021,001,2023-04-20_13h33.25.605,exp_g1,2022.2.5,None,
84.0,l1,f,se,na,../audio/084.wav,,l1_f_se_na_084,,,,,,,../image/penthouse.png,../image/rocket.png,penthouse,lshift,1,penthouse,rocket,penthouse,rocket,None,,,,,,,,,,0,26,26,23,,,,,,,,,,,,,,,,,108.81529941700865,lshift,1,2.789874707988929,109.78141091665408,,,,,,,,,021,001,2023-04-20_13h33.25.605,exp_g1,2022.2.5,None,
78.0,l1,f,se,na,../audio/078.wav,,l1_f_se_na_078,,,,,,,../image/airpods.png,../image/joycons.png,airpods,lshift,1,airpods,joycons,airpods,joycons,None,,,,,,,,,,0,27,27,17,,,,,,,,,,,,,,,,,111.64186749997316,lshift,1,2.1791187500348315,112.60622149962389,,,,,,,,,021,001,2023-04-20_13h33.25.605,exp_g1,2022.2.5,None,
92.0,l1,f,sp,na,../audio/092.wav,,l1_f_sp_na_092,,,,,,,../image/armchair.png,../image/dog.png,armchair,lshift,1,armchair,dog,armchair,dog,None,,,,,,,,,,0,28,28,31,,,,,,,,,,,,,,,,,113.8683626249549,rshift,0,2.4821319169714116,114.83108837466376,,,,,,,,,021,001,2023-04-20_13h33.25.605,exp_g1,2022.2.5,None,
68.0,l1,f,en,na,../audio/068.wav,,l1_f_en_na_068,,,,,,,../image/socks.png,../image/book.png,socks,lshift,1,socks,book,socks,book,None,,,,,,,,,,0,29,29,7,,,,,,,,,,,,,,,,,116.39559829200152,lshift,1,2.3713855410460383,117.35547429166424,,,,,,,,,021,001,2023-04-20_13h33.25.605,exp_g1,2022.2.5,None,
139.0,l1,t,es,f0u,../audio/139.wav,,l1_t_es_f0u_139,,,,,,,../image/restaurant.png,../image/hotel.png,restaurant,lshift,1,restaurant,hotel,restaurant,hotel,None,,,,,,,,,,0,30,30,53,,,,,,,,,,,,,,,,,118.81842154200422,lshift,1,2.7068769990000874,119.78150937462148,,,,,,,,,021,001,2023-04-20_13h33.25.605,exp_g1,2022.2.5,None,
136.0,l1,t,es,f0u,../audio/136.wav,,l1_t_es_f0u_136,,,,,,,../image/city.png,../image/village.png,village,rshift,1,village,city,city,village,None,,,,,,,,,,0,31,31,50,,,,,,,,,,,,,,,,,121.57674308295827,rshift,1,2.8943695420166478,122.53766708367426,,,,,,,,,021,001,2023-04-20_13h33.25.605,exp_g1,2022.2.5,None,
13.0,l1,t,es,na,../audio/013.wav,,l1_t_es_na_013,,,,,,,../image/beer.png,../image/wine.png,beer,lshift,1,beer,wine,beer,wine,None,,,,,,,,,,0,32,32,37,,,,,,,,,,,,,,,,,124.51281712501077,lshift,1,2.792316415987443,125.47293899965395,,,,,,,,,021,001,2023-04-20_13h33.25.605,exp_g1,2022.2.5,None,
89.0,l1,f,sp,na,../audio/089.wav,,l1_f_sp_na_089,,,,,,,../image/bed.png,../image/wallet.png,wallet,rshift,1,wallet,bed,bed,wallet,None,,,,,,,,,,0,33,33,28,,,,,,,,,,,,,,,,,127.35144683299586,rshift,1,2.9066762079601176,128.31554758362861,,,,,,,,,021,001,2023-04-20_13h33.25.605,exp_g1,2022.2.5,None,
16.0,l1,t,es,na,../audio/016.wav,,l1_t_es_na_016,,,,,,,../image/flipflops.png,../image/bag.png,bag,rshift,1,bag,flipflops,flipflops,bag,None,,,,,,,,,,0,34,34,40,,,,,,,,,,,,,,,,,130.30823162500747,rshift,1,3.1413618329679593,131.27195799962308,,,,,,,,,021,001,2023-04-20_13h33.25.605,exp_g1,2022.2.5,None,
94.0,l1,f,sp,na,../audio/094.wav,,l1_f_sp_na_094,,,,,,,../image/beer.png,../image/horchata.png,beer,lshift,1,beer,horchata,beer,horchata,None,,,,,,,,,,0,35,35,33,,,,,,,,,,,,,,,,,133.49635624996154,lshift,1,3.0030933740199544,134.45416662464075,,,,,,,,,021,001,2023-04-20_13h33.25.605,exp_g1,2022.2.5,None,
82.0,l1,f,se,na,../audio/082.wav,,l1_f_se_na_082,,,,,,,../image/mickeymouse.png,../image/spongebob.png,mickeymouse,lshift,1,mickeymouse,spongebob,mickeymouse,spongebob,None,,,,,,,,,,0,36,36,21,,,,,,,,,,,,,,,,,136.54025470797205,lshift,1,2.19668129098136,137.5052909166591,,,,,,,,,021,001,2023-04-20_13h33.25.605,exp_g1,2022.2.5,None,
87.0,l1,f,sp,na,../audio/087.wav,,l1_f_sp_na_087,,,,,,,../image/desk.png,../image/bed.png,bed,rshift,1,bed,desk,desk,bed,None,,,,,,,,,,0,37,37,26,,,,,,,,,,,,,,,,,138.78504866699222,rshift,1,2.272128958022222,139.74903116666636,,,,,,,,,021,001,2023-04-20_13h33.25.605,exp_g1,2022.2.5,None,
71.0,l1,f,en,na,../audio/071.wav,,l1_f_en_na_071,,,,,,,../image/wallet.png,../image/plane.png,plane,rshift,1,plane,wallet,wallet,plane,None,,,,,,,,,,0,38,38,10,,,,,,,,,,,,,,,,,141.09251608297927,rshift,1,2.6789887080085464,142.0659613336359,,,,,,,,,021,001,2023-04-20_13h33.25.605,exp_g1,2022.2.5,None,
88.0,l1,f,sp,na,../audio/088.wav,,l1_f_sp_na_088,,,,,,,../image/book.png,../image/cellphone.png,book,lshift,1,book,cellphone,book,cellphone,None,,,,,,,,,,0,39,39,27,,,,,,,,,,,,,,,,,143.81767395796487,lshift,1,2.243434916017577,144.78212004166951,,,,,,,,,021,001,2023-04-20_13h33.25.605,exp_g1,2022.2.5,None,
90.0,l1,f,sp,na,../audio/090.wav,,l1_f_sp_na_090,,,,,,,../image/bag.png,../image/bottle.png,bag,lshift,1,bag,bottle,bag,bottle,None,,,,,,,,,,0,40,40,29,,,,,,,,,,,,,,,,,146.10380645800615,lshift,1,2.2298675409983844,147.0698541246277,,,,,,,,,021,001,2023-04-20_13h33.25.605,exp_g1,2022.2.5,None,
75.0,l1,f,en,na,../audio/075.wav,,l1_f_en_na_075,,,,,,,../image/dog.png,../image/fish.png,fish,rshift,1,fish,dog,dog,fish,None,,,,,,,,,,0,41,41,14,,,,,,,,,,,,,,,,,148.3799867919879,rshift,1,2.4594665830372833,149.3491988336357,,,,,,,,,021,001,2023-04-20_13h33.25.605,exp_g1,2022.2.5,None,
83.0,l1,f,se,na,../audio/083.wav,,l1_f_se_na_083,,,,,,,../image/donut.png,../image/burger.png,burger,rshift,1,burger,donut,donut,burger,None,,,,,,,,,,0,42,42,22,,,,,,,,,,,,,,,,,150.89594054198824,lshift,0,1.88266141602071,151.85447733366553,,,,,,,,,021,001,2023-04-20_13h33.25.605,exp_g1,2022.2.5,None,
61.0,l1,f,en,na,../audio/061.wav,,l1_f_en_na_061,,,,,,,../image/cat.png,../image/dog.png,dog,rshift,1,dog,cat,cat,dog,../image/,,,,,,,,,,0,43,43,0,,,,,,,,,,,,,,,,,152.82506529201055,rshift,1,2.0978139159851708,153.78778145864297,,,,,,,,,021,001,2023-04-20_13h33.25.605,exp_g1,2022.2.5,None,
15.0,l1,t,es,na,../audio/015.wav,,l1_t_es_na_015,,,,,,,../image/glasses.png,../image/jacket.png,glasses,lshift,1,glasses,jacket,glasses,jacket,None,,,,,,,,,,0,44,44,39,,,,,,,,,,,,,,,,,154.9720605419716,lshift,1,3.173125333036296,155.9323812496771,,,,,,,,,021,001,2023-04-20_13h33.25.605,exp_g1,2022.2.5,None,
63.0,l1,f,en,na,../audio/063.wav,,l1_f_en_na_063,,,,,,,../image/woman.png,../image/man.png,man,rshift,1,man,woman,woman,man,None,,,,,,,,,,0,45,45,2,,,,,,,,,,,,,,,,,158.19635766698048,rshift,1,2.1260050000273623,159.1555284166282,,,,,,,,,021,001,2023-04-20_13h33.25.605,exp_g1,2022.2.5,None,
137.0,l1,t,es,f0u,../audio/137.wav,,l1_t_es_f0u_137,,,,,,,../image/jacket.png,../image/shirt.png,jacket,lshift,1,jacket,shirt,jacket,shirt,None,,,,,,,,,,0,46,46,51,,,,,,,,,,,,,,,,,160.37197224999545,lshift,1,2.187015333038289,161.33797308366437,,,,,,,,,021,001,2023-04-20_13h33.25.605,exp_g1,2022.2.5,None,
20.0,l1,t,es,na,../audio/020.wav,,l1_t_es_na_020,,,,,,,../image/cellphone.png,../image/backpack.png,backpack,rshift,1,backpack,cellphone,cellphone,backpack,None,,,,,,,,,,0,47,47,44,,,,,,,,,,,,,,,,,162.6115443749586,rshift,1,2.490079290990252,163.57000733365228,,,,,,,,,021,001,2023-04-20_13h33.25.605,exp_g1,2022.2.5,None,
131.0,l1,t,es,f0u,../audio/131.wav,,l1_t_es_f0u_131,,,,,,,../image/cat.png,../image/flower.png,cat,lshift,1,cat,flower,cat,flower,None,,,,,,,,,,0,48,48,45,,,,,,,,,,,,,,,,,165.15133074996993,lshift,1,2.078716040996369,166.11543199967517,,,,,,,,,021,001,2023-04-20_13h33.25.605,exp_g1,2022.2.5,None,
62.0,l1,f,en,na,../audio/062.wav,,l1_f_en_na_062,,,,,,,../image/shoe.png,../image/ring.png,shoe,lshift,1,shoe,ring,shoe,ring,None,,,,,,,,,,0,49,49,1,,,,,,,,,,,,,,,,,167.27624149998883,lshift,1,2.1675307920086198,168.2383062496704,,,,,,,,,021,001,2023-04-20_13h33.25.605,exp_g1,2022.2.5,None,
73.0,l1,f,en,na,../audio/073.wav,,l1_f_en_na_073,,,,,,,../image/socks.png,../image/tshirt.png,tshirt,rshift,1,tshirt,socks,socks,tshirt,None,,,,,,,,,,0,50,50,12,,,,,,,,,,,,,,,,,169.48719074996188,rshift,1,2.4068974999827333,170.45461337466648,,,,,,,,,021,001,2023-04-20_13h33.25.605,exp_g1,2022.2.5,None,
138.0,l1,t,es,f0u,../audio/138.wav,,l1_t_es_f0u_138,,,,,,,../image/pants.png,../image/shirt.png,shirt,rshift,1,shirt,pants,pants,shirt,None,,,,,,,,,,0,51,51,52,,,,,,,,,,,,,,,,,171.93857658299385,rshift,1,2.5029944999841973,172.90477024962118,,,,,,,,,021,001,2023-04-20_13h33.25.605,exp_g1,2022.2.5,None,
77.0,l1,f,se,na,../audio/077.wav,,l1_f_se_na_077,,,,,,,../image/mashedpotatoes.png,../image/donut.png,donut,rshift,1,donut,mashedpotatoes,mashedpotatoes,donut,None,,,,,,,,,,0,52,52,16,,,,,,,,,,,,,,,,,174.4937749169767,rshift,1,2.305369707988575,175.44900391664513,,,,,,,,,021,001,2023-04-20_13h33.25.605,exp_g1,2022.2.5,None,
132.0,l1,t,es,f0u,../audio/132.wav,,l1_t_es_f0u_132,,,,,,,../image/car.png,../image/grandma.png,grandma,rshift,1,grandma,car,car,grandma,None,,,,,,,,,,0,53,53,46,,,,,,,,,,,,,,,,,176.85376249998808,rshift,1,3.235746624006424,177.8151535836553,,,,,,,,,021,001,2023-04-20_13h33.25.605,exp_g1,2022.2.5,None,
65.0,l1,f,en,na,../audio/065.wav,,l1_f_en_na_065,,,,,,,../image/computer.png,../image/book.png,book,rshift,1,book,computer,computer,book,None,,,,,,,,,,0,54,54,4,,,,,,,,,,,,,,,,,180.13708849996328,rshift,1,1.9380525830201805,181.0989507086381,,,,,,,,,021,001,2023-04-20_13h33.25.605,exp_g1,2022.2.5,None,
tr1,lt,tr,en,na,../practice_trial/audio/tr1.wav,Where are your kids?,lt_tr_en_na_tr1,-,-,-,-,-,-,../image/america.png,../image/spain.png,,,,,,,,,,,,,,,,,,,,,,0,0,0,0,0,0,0,0,,,,,,,,,,,,,,204.16267629200593,205.10592049966024,"['lshift', 'lshift']","[1.90058258298086, 4.5425495830131695]",,,,,021,001,2023-04-20_13h33.25.605,exp_g1,2022.2.5,None,
tr2,lt,tr,en,na,../practice_trial/audio/tr2.wav,Who is buying my car?,lt_tr_en_na_tr2,-,-,-,-,-,-,../image/america.png,../image/spain.png,,,,,,,,,,,,,,,,,,,,,,0,0,0,0,0,1,1,1,,,,,,,,,,,,,,209.1501262919628,210.10576774966128,['lshift'],[2.3000030409893952],,,,,021,001,2023-04-20_13h33.25.605,exp_g1,2022.2.5,None,
tr3,lt,tr,sp,na,../practice_trial/audio/tr3.wav,¿Dónde está mi perro?,lt_tr_sp_na_tr3,-,-,-,-,-,-,../image/america.png,../image/spain.png,,,,,,,,,,,,,,,,,,,,,,0,0,0,0,0,2,2,2,,,,,,,,,,,,,,214.1488580419682,215.1149203746502,['rshift'],[2.2229195830295794],,,,,021,001,2023-04-20_13h33.25.605,exp_g1,2022.2.5,None,
tr4,lt,tr,sp,na,../practice_trial/audio/tr4.wav,¿De quién es la bolsa?,lt_tr_sp_na_tr4,-,-,-,-,-,-,../image/america.png,../image/spain.png,,,,,,,,,,,,,,,,,,,,,,0,0,0,0,0,3,3,3,,,,,,,,,,,,,,219.1486418749555,220.10549029166967,['rshift'],[2.5582070410018787],,,,,021,001,2023-04-20_13h33.25.605,exp_g1,2022.2.5,None,
tr5,lt,tr,se,na,../practice_trial/audio/tr5.wav,¿Dónde encontraste sus donuts?,lt_tr_se_na_tr5,-,-,-,-,-,-,../image/america.png,../image/spain.png,,,,,,,,,,,,,,,,,,,,,,0,0,0,0,0,4,4,4,,,,,,,,,,,,,,224.1480222499813,225.11700024962582,['rshift'],[2.73189433303196],,,,,021,001,2023-04-20_13h33.25.605,exp_g1,2022.2.5,None,
tr6,lt,tr,se,na,../practice_trial/audio/tr6.wav,¿Cuándo compraste tu sweater?,lt_tr_se_na_tr6,-,-,-,-,-,-,../image/america.png,../image/spain.png,,,,,,,,,,,,,,,,,,,,,,0,0,0,0,0,5,5,5,,,,,,,,,,,,,,229.13738958298927,230.11403162463492,['lshift'],[2.9785509989596903],,,,,021,001,2023-04-20_13h33.25.605,exp_g1,2022.2.5,None,
tr7,lt,tr,es,na,../practice_trial/audio/tr7.wav,Why do you have my camisa?,lt_tr_es_na_tr7,-,-,-,-,-,-,../image/america.png,../image/spain.png,,,,,,,,,,,,,,,,,,,,,,0,0,0,0,0,6,6,6,,,,,,,,,,,,,,234.14628616697155,235.11576762464054,['rshift'],[2.653897667012643],,,,,021,001,2023-04-20_13h33.25.605,exp_g1,2022.2.5,None,
tr8,lt,tr,es,na,../practice_trial/audio/tr8.wav,Where did you find his chanclas?,lt_tr_es_na_tr8,-,-,-,-,-,-,../image/america.png,../image/spain.png,,,,,,,,,,,,,,,,,,,,,,0,0,0,0,0,7,7,7,,,,,,,,,,,,,,239.14849779196084,240.11535199964808,['rshift'],[2.9856937080039643],,,,,021,001,2023-04-20_13h33.25.605,exp_g1,2022.2.5,None,
,,,,,,,,,,,,,,,,,,,,,,,,,,,,,,,,,,,,,0,0,0,0,,,,,,,,,,,,,,,,,,,,,,,,,,021,001,2023-04-20_13h33.25.605,exp_g1,2022.2.5,None,
118.0,l2,f,se,na,../audio/118.wav,,l2_f_se_na_118,,,,,,,../image/america.png,../image/spain.png,,,2,america,spain,,,,1,,,,,,,,,,,,,,,,,,,,,0,0,0,22,,,,,,,,,,,,,,253.93173691700213,254.8713446666409,"['lshift', 'rshift']","[-0.370568458980415, 2.4290803329786286]",021,001,2023-04-20_13h33.25.605,exp_g1,2022.2.5,None,
125,l2,f,sp,na,../audio/125.wav,,l2_f_sp_na_125,,,,,,,../image/america.png,../image/spain.png,,,2,america,spain,,,,None,,,,,,,,,,,,,,,,,,,,,0,1,1,29,,,,,,,,,,,,,,258.9051147499704,259.86990395863927,['rshift'],[2.467539208009839],021,001,2023-04-20_13h33.25.605,exp_g1,2022.2.5,None,
101.0,l2,f,en,na,../audio/101.wav,,l2_f_en_na_101,,,,,,,../image/america.png,../image/spain.png,,,2,america,spain,,,,None,,,,,,,,,,,,,,,,,,,,,0,2,2,5,,,,,,,,,,,,,,263.90606891695643,264.8700846666509,['lshift'],[2.761786375020165],021,001,2023-04-20_13h33.25.605,exp_g1,2022.2.5,None,
27.0,l2,t,es,na,../audio/027.wav,,l2_t_es_na_027,,,,,,,../image/america.png,../image/spain.png,,,2,america,spain,,,,1,,,,,,,,,,,,,,,,,,,,,0,3,3,41,,,,,,,,,,,,,,268.9052946669981,269.87093420862607,['rshift'],[2.8630681239883415],021,001,2023-04-20_13h33.25.605,exp_g1,2022.2.5,None,
117.0,l2,f,se,na,../audio/117.wav,,l2_f_se_na_117,,,,,,,../image/america.png,../image/spain.png,,,2,america,spain,,,,1,,,,,,,,,,,,,,,,,,,,,0,4,4,21,,,,,,,,,,,,,,273.90715991699835,274.870484416668,['rshift'],[2.7991250830236822],021,001,2023-04-20_13h33.25.605,exp_g1,2022.2.5,None,
102.0,l2,f,en,na,../audio/102.wav,,l2_f_en_na_102,,,,,,,../image/america.png,../image/spain.png,,,2,america,spain,,,,None,,,,,,,,,,,,,,,,,,,,,0,5,5,6,,,,,,,,,,,,,,278.90708133298904,279.86909524962925,['lshift'],[2.6921030409866944],021,001,2023-04-20_13h33.25.605,exp_g1,2022.2.5,None,
29.0,l2,t,es,na,../audio/029.wav,,l2_t_es_na_029,,,,,,,../image/america.png,../image/spain.png,,,2,america,spain,,,,1,,,,,,,,,,,,,,,,,,,,,0,6,6,43,,,,,,,,,,,,,,283.905053208,284.8714614996609,['rshift'],[2.755495874036569],021,001,2023-04-20_13h33.25.605,exp_g1,2022.2.5,None,
116.0,l2,f,se,na,../audio/116.wav,,l2_f_se_na_116,,,,,,,../image/america.png,../image/spain.png,,,2,america,spain,,,,1,,,,,,,,,,,,,,,,,,,,,0,7,7,20,,,,,,,,,,,,,,288.90508729196154,289.8687918336402,['rshift'],[3.0018509989604354],021,001,2023-04-20_13h33.25.605,exp_g1,2022.2.5,None,
107.0,l2,f,en,na,../audio/107.wav,,l2_f_en_na_107,,,,,,,../image/america.png,../image/spain.png,,,2,america,spain,,,,None,,,,,,,,,,,,,,,,,,,,,0,8,8,11,,,,,,,,,,,,,,293.90390566695714,294.87178304163194,['lshift'],[2.3554783330182545],021,001,2023-04-20_13h33.25.605,exp_g1,2022.2.5,None,
109.0,l2,f,en,na,../audio/109.wav,,l2_f_en_na_109,,,,,,,../image/america.png,../image/spain.png,,,2,america,spain,,,,None,,,,,,,,,,,,,,,,,,,,,0,9,9,13,,,,,,,,,,,,,,298.90827116696164,299.87134558364437,['lshift'],[2.902211125008762],021,001,2023-04-20_13h33.25.605,exp_g1,2022.2.5,None,
114.0,l2,f,se,na,../audio/114.wav,,l2_f_se_na_114,,,,,,,../image/america.png,../image/spain.png,,,2,america,spain,,,,1,,,,,,,,,,,,,,,,,,,,,0,10,10,18,,,,,,,,,,,,,,303.90334170800634,304.8690411666214,['rshift'],[3.4082041670335457],021,001,2023-04-20_13h33.25.605,exp_g1,2022.2.5,None,
119.0,l2,f,se,na,../audio/119.wav,,l2_f_se_na_119,,,,,,,../image/america.png,../image/spain.png,,,2,america,spain,,,,1,,,,,,,,,,,,,,,,,,,,,0,11,11,23,,,,,,,,,,,,,,308.90618970798096,309.8717354996518,['lshift'],[3.3608220409951173],021,001,2023-04-20_13h33.25.605,exp_g1,2022.2.5,None,
168.0,l2,t,es,f0c,../audio/168.wav,,l2_t_es_f0c_168,,,,,,,../image/america.png,../image/spain.png,,,2,america,spain,,,,1,,,,,,,,,,,,,,,,,,,,,0,12,12,52,,,,,,,,,,,,,,313.9050657500047,314.8711533336357,['rshift'],[2.4168157080421224],021,001,2023-04-20_13h33.25.605,exp_g1,2022.2.5,None,
96.0,l2,f,en,na,../audio/096.wav,,l2_f_en_na_096,,,,,,,../image/america.png,../image/spain.png,,,2,america,spain,,,,None,,,,,,,,,,,,,,,,,,,,,0,13,13,0,,,,,,,,,,,,,,318.8925120829954,319.86866933363876,['lshift'],[2.2192961660330184],021,001,2023-04-20_13h33.25.605,exp_g1,2022.2.5,None,
98.0,l2,f,en,na,../audio/098.wav,,l2_f_en_na_098,,,,,,,../image/america.png,../image/spain.png,,,2,america,spain,,,,None,,,,,,,,,,,,,,,,,,,,,0,14,14,2,,,,,,,,,,,,,,323.89320241700625,324.8712617086751,['lshift'],[2.305972667003516],021,001,2023-04-20_13h33.25.605,exp_g1,2022.2.5,None,
124.0,l2,f,sp,na,../audio/124.wav,,l2_f_sp_na_124,,,,,,,../image/america.png,../image/spain.png,,,2,america,spain,,,,None,,,,,,,,,,,,,,,,,,,,,0,15,15,28,,,,,,,,,,,,,,328.9033043329837,329.8717535836661,"['lshift', 'rshift']","[2.2285417919629253, 2.6345513749984093]",021,001,2023-04-20_13h33.25.605,exp_g1,2022.2.5,None,
103.0,l2,f,en,na,../audio/103.wav,,l2_f_en_na_103,,,,,,,../image/america.png,../image/spain.png,,,2,america,spain,,,,None,,,,,,,,,,,,,,,,,,,,,0,16,16,7,,,,,,,,,,,,,,333.90258162497776,334.8707862086633,['lshift'],[2.4132183749461547],021,001,2023-04-20_13h33.25.605,exp_g1,2022.2.5,None,
23.0,l2,t,es,na,../audio/023.wav,,l2_t_es_na_023,,,,,,,../image/america.png,../image/spain.png,,,2,america,spain,,,,1,,,,,,,,,,,,,,,,,,,,,0,17,17,37,,,,,,,,,,,,,,338.9082210829947,339.870840416643,['rshift'],[3.040092499984894],021,001,2023-04-20_13h33.25.605,exp_g1,2022.2.5,None,
123.0,l2,f,sp,na,../audio/123.wav,,l2_f_sp_na_123,,,,,,,../image/america.png,../image/spain.png,,,2,america,spain,,,,None,,,,,,,,,,,,,,,,,,,,,0,18,18,27,,,,,,,,,,,,,,343.907374124974,344.87159274967075,['rshift'],[2.662040708004497],021,001,2023-04-20_13h33.25.605,exp_g1,2022.2.5,None,
169.0,l2,t,es,f0c,../audio/169.wav,,l2_t_es_f0c_169,,,,,,,../image/america.png,../image/spain.png,,,2,america,spain,,,,1,,,,,,,,,,,,,,,,,,,,,0,19,19,53,,,,,,,,,,,,,,348.9020339169656,349.8688829586647,['rshift'],[2.9477837500162423],021,001,2023-04-20_13h33.25.605,exp_g1,2022.2.5,None,
97.0,l2,f,en,na,../audio/097.wav,,l2_f_en_na_097,,,,,,,../image/america.png,../image/spain.png,,,2,america,spain,,,,None,,,,,,,,,,,,,,,,,,,,,0,20,20,1,,,,,,,,,,,,,,353.9034697499592,354.870815958657,['lshift'],[2.489506417012308],021,001,2023-04-20_13h33.25.605,exp_g1,2022.2.5,None,
128.0,l2,f,sp,na,../audio/128.wav,,l2_f_sp_na_128,,,,,,,../image/america.png,../image/spain.png,,,2,america,spain,,,,None,,,,,,,,,,,,,,,,,,,,,0,21,21,32,,,,,,,,,,,,,,358.9026852079551,359.87041687465194,['rshift'],[2.549703542026691],021,001,2023-04-20_13h33.25.605,exp_g1,2022.2.5,None,
127.0,l2,f,sp,na,../audio/127.wav,,l2_f_sp_na_127,,,,,,,../image/america.png,../image/spain.png,,,2,america,spain,,,,None,,,,,,,,,,,,,,,,,,,,,0,22,22,31,,,,,,,,,,,,,,363.90632870799163,364.870770624668,['rshift'],[2.3943727079895325],021,001,2023-04-20_13h33.25.605,exp_g1,2022.2.5,None,
164.0,l2,t,es,f0c,../audio/164.wav,,l2_t_es_f0c_164,,,,,,,../image/america.png,../image/spain.png,,,2,america,spain,,,,1,,,,,,,,,,,,,,,,,,,,,0,23,23,48,,,,,,,,,,,,,,368.90729679196374,369.87086545862644,['rshift'],[2.3318010419607162],021,001,2023-04-20_13h33.25.605,exp_g1,2022.2.5,None,
25.0,l2,t,es,na,../audio/025.wav,,l2_t_es_na_025,,,,,,,../image/america.png,../image/spain.png,,,2,america,spain,,,,1,,,,,,,,,,,,,,,,,,,,,0,24,24,39,,,,,,,,,,,,,,373.90263074997347,374.8713170836602,['rshift'],[2.6650084580178373],021,001,2023-04-20_13h33.25.605,exp_g1,2022.2.5,None,
110.0,l2,f,en,na,../audio/110.wav,,l2_f_en_na_110,,,,,,,../image/america.png,../image/spain.png,,,2,america,spain,,,,None,,,,,,,,,,,,,,,,,,,,,0,25,25,14,,,,,,,,,,,,,,378.90288099995814,379.8681617916484,['lshift'],[2.7488971239654347],021,001,2023-04-20_13h33.25.605,exp_g1,2022.2.5,None,
111.0,l2,f,se,na,../audio/111.wav,,l2_f_se_na_111,,,,,,,../image/america.png,../image/spain.png,,,2,america,spain,,,,1,,,,,,,,,,,,,,,,,,,,,0,26,26,15,,,,,,,,,,,,,,383.9071284169913,384.87062029162576,['rshift'],[3.07007233297918],021,001,2023-04-20_13h33.25.605,exp_g1,2022.2.5,None,
161.0,l2,t,es,f0c,../audio/161.wav,,l2_t_es_f0c_161,,,,,,,../image/america.png,../image/spain.png,,,2,america,spain,,,,1,,,,,,,,,,,,,,,,,,,,,0,27,27,45,,,,,,,,,,,,,,388.9003133329679,389.86961270863344,['rshift'],[3.18493995803874],021,001,2023-04-20_13h33.25.605,exp_g1,2022.2.5,None,
126.0,l2,f,sp,na,../audio/126.wav,,l2_f_sp_na_126,,,,,,,../image/america.png,../image/spain.png,,,2,america,spain,,,,None,,,,,,,,,,,,,,,,,,,,,0,28,28,30,,,,,,,,,,,,,,393.9052560419659,394.87079587462745,['rshift'],[2.8261372490087524],021,001,2023-04-20_13h33.25.605,exp_g1,2022.2.5,None,
100.0,l2,f,en,na,../audio/100.wav,,l2_f_en_na_100,,,,,,,../image/america.png,../image/spain.png,,,2,america,spain,,,,None,,,,,,,,,,,,,,,,,,,,,0,29,29,4,,,,,,,,,,,,,,398.90580054197926,399.8706409586632,['lshift'],[3.122077666048426],021,001,2023-04-20_13h33.25.605,exp_g1,2022.2.5,None,
106.0,l2,f,en,na,../audio/106.wav,,l2_f_en_na_106,,,,,,,../image/america.png,../image/spain.png,,,2,america,spain,,,,None,,,,,,,,,,,,,,,,,,,,,0,30,30,10,,,,,,,,,,,,,,403.904509416956,404.8699467916779,['lshift'],[2.893615291977767],021,001,2023-04-20_13h33.25.605,exp_g1,2022.2.5,None,
105.0,l2,f,en,na,../audio/105.wav,,l2_f_en_na_105,,,,,,,../image/america.png,../image/spain.png,,,2,america,spain,,,,None,,,,,,,,,,,,,,,,,,,,,0,31,31,9,,,,,,,,,,,,,,408.90340966696385,409.86868545867424,['lshift'],[2.99107308301609],021,001,2023-04-20_13h33.25.605,exp_g1,2022.2.5,None,
165.0,l2,t,es,f0c,../audio/165.wav,,l2_t_es_f0c_165,,,,,,,../image/america.png,../image/spain.png,,,2,america,spain,,,,1,,,,,,,,,,,,,,,,,,,,,0,32,32,49,,,,,,,,,,,,,,413.9071506669861,414.87014158367333,['rshift'],[2.5803245419519953],021,001,2023-04-20_13h33.25.605,exp_g1,2022.2.5,None,
120.0,l2,f,se,na,../audio/120.wav,,l2_f_se_na_120,,,,,,,../image/america.png,../image/spain.png,,,2,america,spain,,,,1,,,,,,,,,,,,,,,,,,,,,0,33,33,24,,,,,,,,,,,,,,418.9033145419671,419.8711519586543,['lshift'],[2.866444291023072],021,001,2023-04-20_13h33.25.605,exp_g1,2022.2.5,None,
162.0,l2,t,es,f0c,../audio/162.wav,,l2_t_es_f0c_162,,,,,,,../image/america.png,../image/spain.png,,,2,america,spain,,,,1,,,,,,,,,,,,,,,,,,,,,0,34,34,46,,,,,,,,,,,,,,423.9038983749924,424.87034529162725,['rshift'],[2.6667574990424328],021,001,2023-04-20_13h33.25.605,exp_g1,2022.2.5,None,
166.0,l2,t,es,f0c,../audio/166.wav,,l2_t_es_f0c_166,,,,,,,../image/america.png,../image/spain.png,,,2,america,spain,,,,1,,,,,,,,,,,,,,,,,,,,,0,35,35,50,,,,,,,,,,,,,,428.9018627079786,429.87042191665773,['rshift'],[3.304525874031242],021,001,2023-04-20_13h33.25.605,exp_g1,2022.2.5,None,
163.0,l2,t,es,f0c,../audio/163.wav,,l2_t_es_f0c_163,,,,,,,../image/america.png,../image/spain.png,,,2,america,spain,,,,1,,,,,,,,,,,,,,,,,,,,,0,36,36,47,,,,,,,,,,,,,,433.90424862498185,434.87006033363673,['rshift'],[3.3183547910302877],021,001,2023-04-20_13h33.25.605,exp_g1,2022.2.5,None,
115.0,l2,f,se,na,../audio/115.wav,,l2_f_se_na_115,,,,,,,../image/america.png,../image/spain.png,,,2,america,spain,,,,1,,,,,,,,,,,,,,,,,,,,,0,37,37,19,,,,,,,,,,,,,,438.90303724998375,439.8683898336642,['lshift'],[4.3661045000189915],021,001,2023-04-20_13h33.25.605,exp_g1,2022.2.5,None,
28.0,l2,t,es,na,../audio/028.wav,,l2_t_es_na_028,,,,,,,../image/america.png,../image/spain.png,,,2,america,spain,,,,1,,,,,,,,,,,,,,,,,,,,,0,38,38,42,,,,,,,,,,,,,,443.90688854199834,444.87051841663583,['rshift'],[2.866417540994007],021,001,2023-04-20_13h33.25.605,exp_g1,2022.2.5,None,
112.0,l2,f,se,na,../audio/112.wav,,l2_f_se_na_112,,,,,,,../image/america.png,../image/spain.png,,,2,america,spain,,,,1,,,,,,,,,,,,,,,,,,,,,0,39,39,16,,,,,,,,,,,,,,448.90491266699973,449.87070737465206,['lshift'],[3.382463166024536],021,001,2023-04-20_13h33.25.605,exp_g1,2022.2.5,None,
30.0,l2,t,es,na,../audio/030.wav,,l2_t_es_na_030,,,,,,,../image/america.png,../image/spain.png,,,2,america,spain,,,,1,,,,,,,,,,,,,,,,,,,,,0,40,40,44,,,,,,,,,,,,,,453.90569512499496,454.8698994166373,['rshift'],[2.992524624976795],021,001,2023-04-20_13h33.25.605,exp_g1,2022.2.5,None,
122.0,l2,f,sp,na,../audio/122.wav,,l2_f_sp_na_122,,,,,,,../image/america.png,../image/spain.png,,,2,america,spain,,,,None,,,,,,,,,,,,,,,,,,,,,0,41,41,26,,,,,,,,,,,,,,458.90482854197035,459.87015879166233,['rshift'],[3.1325569169712253],021,001,2023-04-20_13h33.25.605,exp_g1,2022.2.5,None,
113.0,l2,f,se,na,../audio/113.wav,,l2_f_se_na_113,,,,,,,../image/america.png,../image/spain.png,,,2,america,spain,,,,1,,,,,,,,,,,,,,,,,,,,,0,42,42,17,,,,,,,,,,,,,,463.9040287499665,464.87002870865786,['lshift'],[2.6882309580105357],021,001,2023-04-20_13h33.25.605,exp_g1,2022.2.5,None,
99.0,l2,f,en,na,../audio/099.wav,,l2_f_en_na_099,,,,,,,../image/america.png,../image/spain.png,,,2,america,spain,,,,None,,,,,,,,,,,,,,,,,,,,,0,43,43,3,,,,,,,,,,,,,,468.90071841696044,469.8683440836651,['lshift'],[2.1534679169999436],021,001,2023-04-20_13h33.25.605,exp_g1,2022.2.5,None,
26.0,l2,t,es,na,../audio/026.wav,,l2_t_es_na_026,,,,,,,../image/america.png,../image/spain.png,,,2,america,spain,,,,1,,,,,,,,,,,,,,,,,,,,,0,44,44,40,,,,,,,,,,,,,,473.902571832994,474.8695741666636,['rshift'],[2.6904930000309832],021,001,2023-04-20_13h33.25.605,exp_g1,2022.2.5,None,
167.0,l2,t,es,f0c,../audio/167.wav,,l2_t_es_f0c_167,,,,,,,../image/america.png,../image/spain.png,,,2,america,spain,,,,1,,,,,,,,,,,,,,,,,,,,,0,45,45,51,,,,,,,,,,,,,,478.9035723329871,479.87053612462864,['rshift'],[2.88650525000412],021,001,2023-04-20_13h33.25.605,exp_g1,2022.2.5,None,
121.0,l2,f,sp,na,../audio/121.wav,,l2_f_sp_na_121,,,,,,,../image/america.png,../image/spain.png,,,2,america,spain,,,,None,,,,,,,,,,,,,,,,,,,,,0,46,46,25,,,,,,,,,,,,,,483.90478458296275,484.8701807086511,['rshift'],[2.6204154579900205],021,001,2023-04-20_13h33.25.605,exp_g1,2022.2.5,None,
170.0,l2,t,es,f0c,../audio/170.wav,,l2_t_es_f0c_170,,,,,,,../image/america.png,../image/spain.png,,,2,america,spain,,,,1,,,,,,,,,,,,,,,,,,,,,0,47,47,54,,,,,,,,,,,,,,488.90208558295853,489.8697418746344,['rshift'],[2.8377124160178937],021,001,2023-04-20_13h33.25.605,exp_g1,2022.2.5,None,
108.0,l2,f,en,na,../audio/108.wav,,l2_f_en_na_108,,,,,,,../image/america.png,../image/spain.png,,,2,america,spain,,,,None,,,,,,,,,,,,,,,,,,,,,0,48,48,12,,,,,,,,,,,,,,493.89030233299127,494.8699651666723,['lshift'],[2.574081832950469],021,001,2023-04-20_13h33.25.605,exp_g1,2022.2.5,None,
22.0,l2,t,es,na,../audio/022.wav,,l2_t_es_na_022,,,,,,,../image/america.png,../image/spain.png,,,2,america,spain,,,,1,,,,,,,,,,,,,,,,,,,,,0,49,49,36,,,,,,,,,,,,,,498.89018566696905,499.8680294996632,['rshift'],[2.595971417031251],021,001,2023-04-20_13h33.25.605,exp_g1,2022.2.5,None,
129.0,l2,f,sp,na,../audio/129.wav,,l2_f_sp_na_129,,,,,,,../image/america.png,../image/spain.png,,,2,america,spain,,,,None,,,,,,,,,,,,,,,,,,,,,0,50,50,33,,,,,,,,,,,,,,503.9020607919665,504.8701124996335,['rshift'],[3.862826833035797],021,001,2023-04-20_13h33.25.605,exp_g1,2022.2.5,None,
104.0,l2,f,en,na,../audio/104.wav,,l2_f_en_na_104,,,,,,,../image/america.png,../image/spain.png,,,2,america,spain,,,,None,,,,,,,,,,,,,,,,,,,,,0,51,51,8,,,,,,,,,,,,,,508.9006551670027,509.8707858336313,['lshift'],[2.8692419169819914],021,001,2023-04-20_13h33.25.605,exp_g1,2022.2.5,None,
130.0,l2,f,sp,na,../audio/130.wav,,l2_f_sp_na_130,,,,,,,../image/america.png,../image/spain.png,,,2,america,spain,,,,None,,,,,,,,,,,,,,,,,,,,,0,52,52,34,,,,,,,,,,,,,,513.9023420419544,514.8692371666586,['rshift'],[2.2775062489672564],021,001,2023-04-20_13h33.25.605,exp_g1,2022.2.5,None,
24.0,l2,t,es,na,../audio/024.wav,,l2_t_es_na_024,,,,,,,../image/america.png,../image/spain.png,,,2,america,spain,,,,1,,,,,,,,,,,,,,,,,,,,,0,53,53,38,,,,,,,,,,,,,,518.902532749984,519.8695286666664,['rshift'],[2.624607208010275],021,001,2023-04-20_13h33.25.605,exp_g1,2022.2.5,None,
21.0,l2,t,es,na,../audio/021.wav,,l2_t_es_na_021,,,,,,,../image/america.png,../image/spain.png,,,2,america,spain,,,,1,,,,,,,,,,,,,,,,,,,,,0,54,54,35,,,,,,,,,,,,,,523.9065769579611,524.8690118336274,['rshift'],[2.1916062500094995],021,001,2023-04-20_13h33.25.605,exp_g1,2022.2.5,None,
