participant,session,date,expName,psychopyVersion,OS,frameRate,exp1_trial_key.keys,exp1_trial_key.rt,exp1_trial_loop.thisRepN,exp1_trial_loop.thisTrialN,exp1_trial_loop.thisN,exp1_trial_loop.thisIndex,exp1_trial_loop.ran,num,list,cond,lang,type,sound_dir,phr,sent_code,mat,mat_num,emb_num,emb,cut,mat_f0_c,left,right,correct_img,correct_key,exp1_key.keys,exp1_key.corr,exp1_key.rt,exp1_loop.thisRepN,exp1_loop.thisTrialN,exp1_loop.thisN,exp1_loop.thisIndex,exp1_loop.ran,exp_num,image,image_alt,left_img,right_img,image_dir,exp2_trial_key.keys,exp2_trial_key.rt,exp2_retrial.thisRepN,exp2_retrial.thisTrialN,exp2_retrial.thisN,exp2_retrial.thisIndex,exp2_retrial.ran,exp2_key.keys,exp2_key.rt,exp2_loop.thisRepN,exp2_loop.thisTrialN,exp2_loop.thisN,exp2_loop.thisIndex,exp2_loop.ran,cs
21,1,2023-09-05_18h32.55.031,exp_g1,2022.2.5,MacIntel,60.0024001,,,,,,,,,,,,,,,,,,,,,,,,,,,,,,,,,,,,,,,,,,,,,,,,,,,,,,
21,1,2023-09-05_18h32.55.031,exp_g1,2022.2.5,MacIntel,60.0024001,"[""lshift""]",[1.8195999999642325],0,0,0,0,1,tr1,lt,tr,en,na,practice_trial/audio/tr1.wav,Where are your kids?,lt_tr_en_na_tr1,-,-,-,-,-,-,image/kids.png,image/plates.png,kids,lshift,,,,,,,,,,,,,,,,,,,,,,,,,,,,,
21,1,2023-09-05_18h32.55.031,exp_g1,2022.2.5,MacIntel,60.0024001,"[""rshift""]",[2.1053999999761572],0,1,1,1,1,tr2,lt,tr,en,na,practice_trial/audio/tr2.wav,Who is buying my car?,lt_tr_en_na_tr2,-,-,-,-,-,-,image/bag.png,image/car.png,car,rshift,,,,,,,,,,,,,,,,,,,,,,,,,,,,,
21,1,2023-09-05_18h32.55.031,exp_g1,2022.2.5,MacIntel,60.0024001,"[""lshift""]",[1.4793999999761525],0,2,2,2,1,tr3,lt,tr,sp,na,practice_trial/audio/tr3.wav,¿Dónde está mi perro?,lt_tr_sp_na_tr3,-,-,-,-,-,-,image/dog.png,image/grandma.png,dog,lshift,,,,,,,,,,,,,,,,,,,,,,,,,,,,,
21,1,2023-09-05_18h32.55.031,exp_g1,2022.2.5,MacIntel,60.0024001,"[""rshift""]",[2.413100000023846],0,3,3,3,1,tr4,lt,tr,sp,na,practice_trial/audio/tr4.wav,¿De quién es la bolsa?,lt_tr_sp_na_tr4,-,-,-,-,-,-,image/shirt.png,image/bag.png,bag,rshift,,,,,,,,,,,,,,,,,,,,,,,,,,,,,
21,1,2023-09-05_18h32.55.031,exp_g1,2022.2.5,MacIntel,60.0024001,"[""lshift""]",[2.929699999988074],0,4,4,4,1,tr5,lt,tr,se,na,practice_trial/audio/tr5.wav,¿Dónde encontraste sus donuts?,lt_tr_se_na_tr5,-,-,-,-,-,-,image/donut.png,image/cups.png,donut,lshift,,,,,,,,,,,,,,,,,,,,,,,,,,,,,
21,1,2023-09-05_18h32.55.031,exp_g1,2022.2.5,MacIntel,60.0024001,"[""rshift""]",[2.364199999988074],0,5,5,5,1,tr6,lt,tr,se,na,practice_trial/audio/tr6.wav,¿Cuándo compraste tu sweater?,lt_tr_se_na_tr6,-,-,-,-,-,-,image/chair.png,image/sweater.png,sweater,rshift,,,,,,,,,,,,,,,,,,,,,,,,,,,,,
21,1,2023-09-05_18h32.55.031,exp_g1,2022.2.5,MacIntel,60.0024001,"[""lshift""]",[2.4476999999880817],0,6,6,6,1,tr7,lt,tr,es,na,practice_trial/audio/tr7.wav,Why do you have my camisa?,lt_tr_es_na_tr7,-,-,-,-,-,-,image/shirt.png,image/wallet.png,shirt,lshift,,,,,,,,,,,,,,,,,,,,,,,,,,,,,
21,1,2023-09-05_18h32.55.031,exp_g1,2022.2.5,MacIntel,60.0024001,"[""rshift""]",[2.1147000000476837],0,7,7,7,1,tr8,lt,tr,es,na,practice_trial/audio/tr8.wav,Where did you find his chanclas?,lt_tr_es_na_tr8,-,-,-,-,-,-,image/key.png,image/flipflops.png,flipflops,rshift,,,,,,,,,,,,,,,,,,,,,,,,,,,,,
21,1,2023-09-05_18h32.55.031,exp_g1,2022.2.5,MacIntel,60.0024001,,,,,,,,,,,,,,,,,,,,,,,,,,,,,,,,,,,,,,,,,,,,,,,,,,,,,,
21,1,2023-09-05_18h32.55.031,exp_g1,2022.2.5,MacIntel,60.0024001,,,,,,,,62,l1,f,en,na,audio/062.wav,,l1_f_en_na_062,,,,,,,image/shoe.png,image/ring.png,shoe,lshift,lshift,1,1.647,0,0,0,1,1,1,shoe,ring,shoe,ring,,,,,,,,,,,,,,,,
21,1,2023-09-05_18h32.55.031,exp_g1,2022.2.5,MacIntel,60.0024001,,,,,,,,61,l1,f,en,na,audio/061.wav,,l1_f_en_na_061,,,,,,,image/cat.png,image/dog.png,dog,rshift,rshift,1,1.5351,0,1,1,0,1,1,dog,cat,cat,dog,image/,,,,,,,,,,,,,,,
21,1,2023-09-05_18h32.55.031,exp_g1,2022.2.5,MacIntel,60.0024001,,,,,,,,91,l1,f,sp,na,audio/091.wav,,l1_f_sp_na_091,,,,,,,image/backpack.png,image/bracelet.png,bracelet,rshift,rshift,1,1.972,0,2,2,30,1,1,bracelet,backpack,backpack,bracelet,,,,,,,,,,,,,,,,
21,1,2023-09-05_18h32.55.031,exp_g1,2022.2.5,MacIntel,60.0024001,,,,,,,,19,l1,t,es,na,audio/019.wav,,l1_t_es_na_019,,,,,,,image/boy.png,image/dog.png,boy,lshift,lshift,1,2.78,0,3,3,43,1,1,boy,dog,boy,dog,,,,,,,,,,,,,,,,
21,1,2023-09-05_18h32.55.031,exp_g1,2022.2.5,MacIntel,60.0024001,,,,,,,,132,l1,t,es,f0u,audio/132.wav,,l1_t_es_f0u_132,,,,,,,image/car.png,image/grandma.png,grandma,rshift,rshift,1,2.2807,0,4,4,46,1,1,grandma,car,car,grandma,,,,,,,,,,,,,,,,
21,1,2023-09-05_18h32.55.031,exp_g1,2022.2.5,MacIntel,60.0024001,,,,,,,,11,l1,t,es,na,audio/011.wav,,l1_t_es_na_011,,,,,,,image/armchair.png,image/bed.png,armchair,lshift,lshift,1,3.631,0,5,5,35,1,1,armchair,bed,armchair,bed,,,,,,,,,,,,,,,,
21,1,2023-09-05_18h32.55.031,exp_g1,2022.2.5,MacIntel,60.0024001,,,,,,,,64,l1,f,en,na,audio/064.wav,,l1_f_en_na_064,,,,,,,image/wallet.png,image/key.png,wallet,lshift,lshift,1,1.6783,0,6,6,3,1,1,wallet,key,wallet,key,,,,,,,,,,,,,,,,
21,1,2023-09-05_18h32.55.031,exp_g1,2022.2.5,MacIntel,60.0024001,,,,,,,,73,l1,f,en,na,audio/073.wav,,l1_f_en_na_073,,,,,,,image/socks.png,image/tshirt.png,tshirt,rshift,rshift,1,2.0781,0,7,7,12,1,1,tshirt,socks,socks,tshirt,,,,,,,,,,,,,,,,
21,1,2023-09-05_18h32.55.031,exp_g1,2022.2.5,MacIntel,60.0024001,,,,,,,,16,l1,t,es,na,audio/016.wav,,l1_t_es_na_016,,,,,,,image/flipflops.png,image/bag.png,bag,rshift,rshift,1,2.8799,0,8,8,40,1,1,bag,flipflops,flipflops,bag,,,,,,,,,,,,,,,,
21,1,2023-09-05_18h32.55.031,exp_g1,2022.2.5,MacIntel,60.0024001,,,,,,,,86,l1,f,sp,na,audio/086.wav,,l1_f_sp_na_086,,,,,,,image/plates.png,image/glasses.png,plates,lshift,lshift,1,1.9614,0,9,9,25,1,1,plates,glasses,plates,glasses,,,,,,,,,,,,,,,,
21,1,2023-09-05_18h32.55.031,exp_g1,2022.2.5,MacIntel,60.0024001,,,,,,,,89,l1,f,sp,na,audio/089.wav,,l1_f_sp_na_089,,,,,,,image/bed.png,image/wallet.png,wallet,rshift,rshift,1,2.01,0,10,10,28,1,1,wallet,bed,bed,wallet,,,,,,,,,,,,,,,,
21,1,2023-09-05_18h32.55.031,exp_g1,2022.2.5,MacIntel,60.0024001,,,,,,,,70,l1,f,en,na,audio/070.wav,,l1_f_en_na_070,,,,,,,image/computer.png,image/bed.png,computer,lshift,lshift,1,2.0452,0,11,11,9,1,1,computer,bed,computer,bed,,,,,,,,,,,,,,,,
21,1,2023-09-05_18h32.55.031,exp_g1,2022.2.5,MacIntel,60.0024001,,,,,,,,17,l1,t,es,na,audio/017.wav,,l1_t_es_na_017,,,,,,,image/jug.png,image/cat.png,jug,lshift,lshift,1,2.6615,0,12,12,41,1,1,jug,cat,jug,cat,,,,,,,,,,,,,,,,
21,1,2023-09-05_18h32.55.031,exp_g1,2022.2.5,MacIntel,60.0024001,,,,,,,,138,l1,t,es,f0u,audio/138.wav,,l1_t_es_f0u_138,,,,,,,image/pants.png,image/shirt.png,shirt,rshift,rshift,1,2.3004,0,13,13,52,1,1,shirt,pants,pants,shirt,,,,,,,,,,,,,,,,
21,1,2023-09-05_18h32.55.031,exp_g1,2022.2.5,MacIntel,60.0024001,,,,,,,,133,l1,t,es,f0u,audio/133.wav,,l1_t_es_f0u_133,,,,,,,image/cellphone.png,image/book.png,cellphone,lshift,lshift,1,2.2766,0,14,14,47,1,1,cellphone,book,cellphone,book,,,,,,,,,,,,,,,,
21,1,2023-09-05_18h32.55.031,exp_g1,2022.2.5,MacIntel,60.0024001,,,,,,,,85,l1,f,se,na,audio/085.wav,,l1_f_se_na_085,,,,,,,image/loafers.png,image/sneakers.png,sneakers,rshift,rshift,1,2.4334,0,15,15,24,1,1,sneakers,loafers,loafers,sneakers,,,,,,,,,,,,,,,,
21,1,2023-09-05_18h32.55.031,exp_g1,2022.2.5,MacIntel,60.0024001,,,,,,,,13,l1,t,es,na,audio/013.wav,,l1_t_es_na_013,,,,,,,image/beer.png,image/wine.png,beer,lshift,lshift,1,2.4242,0,16,16,37,1,1,beer,wine,beer,wine,,,,,,,,,,,,,,,,
21,1,2023-09-05_18h32.55.031,exp_g1,2022.2.5,MacIntel,60.0024001,,,,,,,,135,l1,t,es,f0u,audio/135.wav,,l1_t_es_f0u_135,,,,,,,image/flipflops.png,image/flower.png,flipflops,lshift,lshift,1,2.1342,0,17,17,49,1,1,flipflops,flower,flipflops,flower,,,,,,,,,,,,,,,,
21,1,2023-09-05_18h32.55.031,exp_g1,2022.2.5,MacIntel,60.0024001,,,,,,,,18,l1,t,es,na,audio/018.wav,,l1_t_es_na_018,,,,,,,image/cups.png,image/napkins.png,napkins,rshift,rshift,1,2.3636,0,18,18,42,1,1,napkins,cups,cups,napkins,,,,,,,,,,,,,,,,
21,1,2023-09-05_18h32.55.031,exp_g1,2022.2.5,MacIntel,60.0024001,,,,,,,,81,l1,f,se,na,audio/081.wav,,l1_f_se_na_081,,,,,,,image/boxers.png,image/sweatpants.png,sweatpants,rshift,rshift,1,2.432,0,19,19,20,1,1,sweatpants,boxers,boxers,sweatpants,,,,,,,,,,,,,,,,
21,1,2023-09-05_18h32.55.031,exp_g1,2022.2.5,MacIntel,60.0024001,,,,,,,,90,l1,f,sp,na,audio/090.wav,,l1_f_sp_na_090,,,,,,,image/bag.png,image/bottle.png,bag,lshift,lshift,1,2.599,0,20,20,29,1,1,bag,bottle,bag,bottle,,,,,,,,,,,,,,,,
21,1,2023-09-05_18h32.55.031,exp_g1,2022.2.5,MacIntel,60.0024001,,,,,,,,15,l1,t,es,na,audio/015.wav,,l1_t_es_na_015,,,,,,,image/glasses.png,image/jacket.png,glasses,lshift,lshift,1,2.3008,0,21,21,39,1,1,glasses,jacket,glasses,jacket,,,,,,,,,,,,,,,,
21,1,2023-09-05_18h32.55.031,exp_g1,2022.2.5,MacIntel,60.0024001,,,,,,,,20,l1,t,es,na,audio/020.wav,,l1_t_es_na_020,,,,,,,image/cellphone.png,image/backpack.png,backpack,rshift,rshift,1,2.3985,0,22,22,44,1,1,backpack,cellphone,cellphone,backpack,,,,,,,,,,,,,,,,
21,1,2023-09-05_18h32.55.031,exp_g1,2022.2.5,MacIntel,60.0024001,,,,,,,,14,l1,t,es,na,audio/014.wav,,l1_t_es_na_014,,,,,,,image/book.png,image/key.png,key,rshift,rshift,1,2.1454,0,23,23,38,1,1,key,book,book,key,,,,,,,,,,,,,,,,
21,1,2023-09-05_18h32.55.031,exp_g1,2022.2.5,MacIntel,60.0024001,,,,,,,,84,l1,f,se,na,audio/084.wav,,l1_f_se_na_084,,,,,,,image/penthouse.png,image/rocket.png,penthouse,lshift,lshift,1,2.2325,0,24,24,23,1,1,penthouse,rocket,penthouse,rocket,,,,,,,,,,,,,,,,
21,1,2023-09-05_18h32.55.031,exp_g1,2022.2.5,MacIntel,60.0024001,,,,,,,,74,l1,f,en,na,audio/074.wav,,l1_f_en_na_074,,,,,,,image/boy.png,image/woman.png,boy,lshift,lshift,1,1.7133,0,25,25,13,1,1,boy,woman,boy,woman,,,,,,,,,,,,,,,,
21,1,2023-09-05_18h32.55.031,exp_g1,2022.2.5,MacIntel,60.0024001,,,,,,,,80,l1,f,se,na,audio/080.wav,,l1_f_se_na_080,,,,,,,image/mouse.png,image/rat.png,mouse,lshift,lshift,1,1.8932,0,26,26,19,1,1,mouse,rat,mouse,rat,,,,,,,,,,,,,,,,
21,1,2023-09-05_18h32.55.031,exp_g1,2022.2.5,MacIntel,60.0024001,,,,,,,,63,l1,f,en,na,audio/063.wav,,l1_f_en_na_063,,,,,,,image/woman.png,image/man.png,man,rshift,rshift,1,1.7298,0,27,27,2,1,1,man,woman,woman,man,,,,,,,,,,,,,,,,
21,1,2023-09-05_18h32.55.031,exp_g1,2022.2.5,MacIntel,60.0024001,,,,,,,,88,l1,f,sp,na,audio/088.wav,,l1_f_sp_na_088,,,,,,,image/book.png,image/cellphone.png,book,lshift,lshift,1,1.9997,0,28,28,27,1,1,book,cellphone,book,cellphone,,,,,,,,,,,,,,,,
21,1,2023-09-05_18h32.55.031,exp_g1,2022.2.5,MacIntel,60.0024001,,,,,,,,82,l1,f,se,na,audio/082.wav,,l1_f_se_na_082,,,,,,,image/mickeymouse.png,image/spongebob.png,mickeymouse,lshift,rshift,0,2.0288,0,29,29,21,1,1,mickeymouse,spongebob,mickeymouse,spongebob,,,,,,,,,,,,,,,,
21,1,2023-09-05_18h32.55.031,exp_g1,2022.2.5,MacIntel,60.0024001,,,,,,,,76,l1,f,se,na,audio/076.wav,,l1_f_se_na_076,,,,,,,image/hotdog.png,image/burger.png,hotdog,lshift,lshift,1,1.9661,0,30,30,15,1,1,hotdog,burger,hotdog,burger,,,,,,,,,,,,,,,,
21,1,2023-09-05_18h32.55.031,exp_g1,2022.2.5,MacIntel,60.0024001,,,,,,,,92,l1,f,sp,na,audio/092.wav,,l1_f_sp_na_092,,,,,,,image/armchair.png,image/dog.png,armchair,lshift,lshift,1,1.9497,0,31,31,31,1,1,armchair,dog,armchair,dog,,,,,,,,,,,,,,,,
21,1,2023-09-05_18h32.55.031,exp_g1,2022.2.5,MacIntel,60.0024001,,,,,,,,94,l1,f,sp,na,audio/094.wav,,l1_f_sp_na_094,,,,,,,image/beer.png,image/horchata.png,beer,lshift,lshift,1,2.3507,0,32,32,33,1,1,beer,horchata,beer,horchata,,,,,,,,,,,,,,,,
21,1,2023-09-05_18h32.55.031,exp_g1,2022.2.5,MacIntel,60.0024001,,,,,,,,131,l1,t,es,f0u,audio/131.wav,,l1_t_es_f0u_131,,,,,,,image/cat.png,image/flower.png,cat,lshift,lshift,1,1.9173,0,33,33,45,1,1,cat,flower,cat,flower,,,,,,,,,,,,,,,,
21,1,2023-09-05_18h32.55.031,exp_g1,2022.2.5,MacIntel,60.0024001,,,,,,,,67,l1,f,en,na,audio/067.wav,,l1_f_en_na_067,,,,,,,image/beer.png,image/glasses.png,glasses,rshift,rshift,1,2.1114,0,34,34,6,1,1,glasses,beer,beer,glasses,,,,,,,,,,,,,,,,
21,1,2023-09-05_18h32.55.031,exp_g1,2022.2.5,MacIntel,60.0024001,,,,,,,,137,l1,t,es,f0u,audio/137.wav,,l1_t_es_f0u_137,,,,,,,image/jacket.png,image/shirt.png,jacket,lshift,lshift,1,2.1981,0,35,35,51,1,1,jacket,shirt,jacket,shirt,,,,,,,,,,,,,,,,
21,1,2023-09-05_18h32.55.031,exp_g1,2022.2.5,MacIntel,60.0024001,,,,,,,,78,l1,f,se,na,audio/078.wav,,l1_f_se_na_078,,,,,,,image/airpods.png,image/joycons.png,airpods,lshift,lshift,1,2.0107,0,36,36,17,1,1,airpods,joycons,airpods,joycons,,,,,,,,,,,,,,,,
21,1,2023-09-05_18h32.55.031,exp_g1,2022.2.5,MacIntel,60.0024001,,,,,,,,71,l1,f,en,na,audio/071.wav,,l1_f_en_na_071,,,,,,,image/wallet.png,image/plane.png,plane,rshift,rshift,1,2.6437,0,37,37,10,1,1,plane,wallet,wallet,plane,,,,,,,,,,,,,,,,
21,1,2023-09-05_18h32.55.031,exp_g1,2022.2.5,MacIntel,60.0024001,,,,,,,,139,l1,t,es,f0u,audio/139.wav,,l1_t_es_f0u_139,,,,,,,image/restaurant.png,image/hotel.png,restaurant,lshift,lshift,1,2.6248,0,38,38,53,1,1,restaurant,hotel,restaurant,hotel,,,,,,,,,,,,,,,,
21,1,2023-09-05_18h32.55.031,exp_g1,2022.2.5,MacIntel,60.0024001,,,,,,,,87,l1,f,sp,na,audio/087.wav,,l1_f_sp_na_087,,,,,,,image/desk.png,image/bed.png,bed,rshift,rshift,1,2.0659,0,39,39,26,1,1,bed,desk,desk,bed,,,,,,,,,,,,,,,,
21,1,2023-09-05_18h32.55.031,exp_g1,2022.2.5,MacIntel,60.0024001,,,,,,,,68,l1,f,en,na,audio/068.wav,,l1_f_en_na_068,,,,,,,image/socks.png,image/book.png,socks,lshift,lshift,1,2.1106,0,40,40,7,1,1,socks,book,socks,book,,,,,,,,,,,,,,,,
21,1,2023-09-05_18h32.55.031,exp_g1,2022.2.5,MacIntel,60.0024001,,,,,,,,134,l1,t,es,f0u,audio/134.wav,,l1_t_es_f0u_134,,,,,,,image/basket.png,image/truck.png,truck,rshift,rshift,1,2.3233,0,41,41,48,1,1,truck,basket,basket,truck,,,,,,,,,,,,,,,,
21,1,2023-09-05_18h32.55.031,exp_g1,2022.2.5,MacIntel,60.0024001,,,,,,,,83,l1,f,se,na,audio/083.wav,,l1_f_se_na_083,,,,,,,image/donut.png,image/burger.png,burger,rshift,rshift,1,2.0079,0,42,42,22,1,1,burger,donut,donut,burger,,,,,,,,,,,,,,,,
21,1,2023-09-05_18h32.55.031,exp_g1,2022.2.5,MacIntel,60.0024001,,,,,,,,66,l1,f,en,na,audio/066.wav,,l1_f_en_na_066,,,,,,,image/bag.png,image/scarf.png,bag,lshift,lshift,1,2.0605,0,43,43,5,1,1,bag,scarf,bag,scarf,,,,,,,,,,,,,,,,
21,1,2023-09-05_18h32.55.031,exp_g1,2022.2.5,MacIntel,60.0024001,,,,,,,,77,l1,f,se,na,audio/077.wav,,l1_f_se_na_077,,,,,,,image/mashedpotatoes.png,image/donut.png,donut,rshift,rshift,1,1.8322,0,44,44,16,1,1,donut,mashedpotatoes,mashedpotatoes,donut,,,,,,,,,,,,,,,,
21,1,2023-09-05_18h32.55.031,exp_g1,2022.2.5,MacIntel,60.0024001,,,,,,,,93,l1,f,sp,na,audio/093.wav,,l1_f_sp_na_093,,,,,,,image/boy.png,image/book.png,book,rshift,rshift,1,1.6842,0,45,45,32,1,1,book,boy,boy,book,,,,,,,,,,,,,,,,
21,1,2023-09-05_18h32.55.031,exp_g1,2022.2.5,MacIntel,60.0024001,,,,,,,,75,l1,f,en,na,audio/075.wav,,l1_f_en_na_075,,,,,,,image/dog.png,image/fish.png,fish,rshift,rshift,1,2.1633,0,46,46,14,1,1,fish,dog,dog,fish,,,,,,,,,,,,,,,,
21,1,2023-09-05_18h32.55.031,exp_g1,2022.2.5,MacIntel,60.0024001,,,,,,,,65,l1,f,en,na,audio/065.wav,,l1_f_en_na_065,,,,,,,image/computer.png,image/book.png,book,rshift,rshift,1,1.7105,0,47,47,4,1,1,book,computer,computer,book,,,,,,,,,,,,,,,,
21,1,2023-09-05_18h32.55.031,exp_g1,2022.2.5,MacIntel,60.0024001,,,,,,,,95,l1,f,sp,na,audio/095.wav,,l1_f_sp_na_095,,,,,,,image/socks.png,image/key.png,key,rshift,rshift,1,1.7833,0,48,48,34,1,1,key,socks,socks,key,,,,,,,,,,,,,,,,
21,1,2023-09-05_18h32.55.031,exp_g1,2022.2.5,MacIntel,60.0024001,,,,,,,,140,l1,t,es,f0u,audio/140.wav,,l1_t_es_f0u_140,,,,,,,image/ring.png,image/bracelet.png,bracelet,rshift,rshift,1,2.4481,0,49,49,54,1,1,bracelet,ring,ring,bracelet,,,,,,,,,,,,,,,,
21,1,2023-09-05_18h32.55.031,exp_g1,2022.2.5,MacIntel,60.0024001,,,,,,,,136,l1,t,es,f0u,audio/136.wav,,l1_t_es_f0u_136,,,,,,,image/city.png,image/village.png,village,rshift,rshift,1,2.3907,0,50,50,50,1,1,village,city,city,village,,,,,,,,,,,,,,,,
21,1,2023-09-05_18h32.55.031,exp_g1,2022.2.5,MacIntel,60.0024001,,,,,,,,79,l1,f,se,na,audio/079.wav,,l1_f_se_na_079,,,,,,,image/sweatpants.png,image/jeans.png,jeans,rshift,rshift,1,2.0264,0,51,51,18,1,1,jeans,sweatpants,sweatpants,jeans,,,,,,,,,,,,,,,,
21,1,2023-09-05_18h32.55.031,exp_g1,2022.2.5,MacIntel,60.0024001,,,,,,,,72,l1,f,en,na,audio/072.wav,,l1_f_en_na_072,,,,,,,image/dog.png,image/fish.png,dog,lshift,lshift,1,1.9341,0,52,52,11,1,1,dog,fish,dog,fish,,,,,,,,,,,,,,,,
21,1,2023-09-05_18h32.55.031,exp_g1,2022.2.5,MacIntel,60.0024001,,,,,,,,12,l1,t,es,na,audio/012.wav,,l1_t_es_na_012,,,,,,,image/newspaper.png,image/book.png,book,rshift,rshift,1,2.1439,0,53,53,36,1,1,book,newspaper,newspaper,book,,,,,,,,,,,,,,,,
21,1,2023-09-05_18h32.55.031,exp_g1,2022.2.5,MacIntel,60.0024001,,,,,,,,69,l1,f,en,na,audio/069.wav,,l1_f_en_na_069,,,,,,,image/bag.png,image/shirt.png,shirt,rshift,rshift,1,2.0937,0,54,54,8,1,1,shirt,bag,bag,shirt,,,,,,,,,,,,,,,,
21,1,2023-09-05_18h32.55.031,exp_g1,2022.2.5,MacIntel,60.0024001,,,,,,,,,,,,,,,,,,,,,,,,,,,,,,,,,,,,,,,,,,,,,,,,,,,,,,
21,1,2023-09-05_18h32.55.031,exp_g1,2022.2.5,MacIntel,60.0024001,,,,,,,,,,,,,,,,,,,,,,,,,,,,,,,,,,,,,,,,"[""lshift"",""rshift""]","[1.476799999952334,1.9112999999522913]",0,0,0,0,1,,,,,,,,
21,1,2023-09-05_18h32.55.031,exp_g1,2022.2.5,MacIntel,60.0024001,,,,,,,,,,,,,,,,,,,,,,,,,,,,,,,,,,,,,,,,"[""lshift"",""rshift""]","[1.2684999999999604,2.1339999999999577]",1,0,1,0,1,,,,,,,,
21,1,2023-09-05_18h32.55.031,exp_g1,2022.2.5,MacIntel,60.0024001,,,,,,,,,,,,,,,,,,,,,,,,,,,,,,,,,,,,,,,,,,,,,,,,,,,,,,
21,1,2023-09-05_18h32.55.031,exp_g1,2022.2.5,MacIntel,60.0024001,,,,,,,,116,l2,f,se,na,audio/116.wav,,l2_f_se_na_116,,,,,,,image/america.png,image/spain.png,,,,,,,,,,,2,america,spain,,,,,,,,,,,"[""lshift"",""rshift""]","[1.0765999999642304,2.2986999999880595]",0,0,0,20,1,1
21,1,2023-09-05_18h32.55.031,exp_g1,2022.2.5,MacIntel,60.0024001,,,,,,,,166,l2,t,es,f0c,audio/166.wav,,l2_t_es_f0c_166,,,,,,,image/america.png,image/spain.png,,,,,,,,,,,2,america,spain,,,,,,,,,,,"[""lshift"",""rshift""]","[1.2836000000238528,2.9517000000477083]",0,1,1,50,1,1
21,1,2023-09-05_18h32.55.031,exp_g1,2022.2.5,MacIntel,60.0024001,,,,,,,,108,l2,f,en,na,audio/108.wav,,l2_f_en_na_108,,,,,,,image/america.png,image/spain.png,,,,,,,,,,,2,america,spain,,,,,,,,,,,"[""lshift""]",[1.3015000000000327],0,2,2,12,1,
21,1,2023-09-05_18h32.55.031,exp_g1,2022.2.5,MacIntel,60.0024001,,,,,,,,29,l2,t,es,na,audio/029.wav,,l2_t_es_na_029,,,,,,,image/america.png,image/spain.png,,,,,,,,,,,2,america,spain,,,,,,,,,,,"[""lshift"",""rshift""]","[1.2666000000238569,2.452400000035766]",0,3,3,43,1,1
21,1,2023-09-05_18h32.55.031,exp_g1,2022.2.5,MacIntel,60.0024001,,,,,,,,101,l2,f,en,na,audio/101.wav,,l2_f_en_na_101,,,,,,,image/america.png,image/spain.png,,,,,,,,,,,2,america,spain,,,,,,,,,,,"[""lshift""]",[1.3920999999642731],0,4,4,5,1,
21,1,2023-09-05_18h32.55.031,exp_g1,2022.2.5,MacIntel,60.0024001,,,,,,,,123,l2,f,sp,na,audio/123.wav,,l2_f_sp_na_123,,,,,,,image/america.png,image/spain.png,,,,,,,,,,,2,america,spain,,,,,,,,,,,"[""rshift"",""lshift""]","[1.2193999999761331,1.9138000000119177]",0,5,5,27,1,
21,1,2023-09-05_18h32.55.031,exp_g1,2022.2.5,MacIntel,60.0024001,,,,,,,,97,l2,f,en,na,audio/097.wav,,l2_f_en_na_097,,,,,,,image/america.png,image/spain.png,,,,,,,,,,,2,america,spain,,,,,,,,,,,"[""lshift""]",[1.4343000000119446],0,6,6,1,1,
21,1,2023-09-05_18h32.55.031,exp_g1,2022.2.5,MacIntel,60.0024001,,,,,,,,21,l2,t,es,na,audio/021.wav,,l2_t_es_na_021,,,,,,,image/america.png,image/spain.png,,,,,,,,,,,2,america,spain,,,,,,,,,,,"[""lshift"",""rshift""]","[1.547200000047667,2.0020000000000095]",0,7,7,35,1,1
21,1,2023-09-05_18h32.55.031,exp_g1,2022.2.5,MacIntel,60.0024001,,,,,,,,22,l2,t,es,na,audio/022.wav,,l2_t_es_na_022,,,,,,,image/america.png,image/spain.png,,,,,,,,,,,2,america,spain,,,,,,,,,,,"[""lshift"",""rshift""]","[1.458100000023876,2.169899999976167]",0,8,8,36,1,1
21,1,2023-09-05_18h32.55.031,exp_g1,2022.2.5,MacIntel,60.0024001,,,,,,,,102,l2,f,en,na,audio/102.wav,,l2_f_en_na_102,,,,,,,image/america.png,image/spain.png,,,,,,,,,,,2,america,spain,,,,,,,,,,,"[""lshift"",""rshift"",""lshift""]","[1.3666999999881,2.1901999999880672,3.0068000000119355]",0,9,9,6,1,
21,1,2023-09-05_18h32.55.031,exp_g1,2022.2.5,MacIntel,60.0024001,,,,,,,,104,l2,f,en,na,audio/104.wav,,l2_f_en_na_104,,,,,,,image/america.png,image/spain.png,,,,,,,,,,,2,america,spain,,,,,,,,,,,"[""lshift"",""lshift""]","[1.1434999999999604,1.8328000000119005]",0,10,10,8,1,
21,1,2023-09-05_18h32.55.031,exp_g1,2022.2.5,MacIntel,60.0024001,,,,,,,,169,l2,t,es,f0c,audio/169.wav,,l2_t_es_f0c_169,,,,,,,image/america.png,image/spain.png,,,,,,,,,,,2,america,spain,,,,,,,,,,,"[""rshift"",""lshift"",""lshift"",""rshift""]","[1.2061999999880868,1.8071000000238655,2.242600000023856,3.1916000000238682]",0,11,11,53,1,1
21,1,2023-09-05_18h32.55.031,exp_g1,2022.2.5,MacIntel,60.0024001,,,,,,,,124,l2,f,sp,na,audio/124.wav,,l2_f_sp_na_124,,,,,,,image/america.png,image/spain.png,,,,,,,,,,,2,america,spain,,,,,,,,,,,"[""rshift""]",[1.3889000000357328],0,12,12,28,1,
21,1,2023-09-05_18h32.55.031,exp_g1,2022.2.5,MacIntel,60.0024001,,,,,,,,27,l2,t,es,na,audio/027.wav,,l2_t_es_na_027,,,,,,,image/america.png,image/spain.png,,,,,,,,,,,2,america,spain,,,,,,,,,,,"[""lshift"",""rshift""]","[1.3684999999999832,2.000400000035768]",0,13,13,41,1,1
21,1,2023-09-05_18h32.55.031,exp_g1,2022.2.5,MacIntel,60.0024001,,,,,,,,109,l2,f,en,na,audio/109.wav,,l2_f_en_na_109,,,,,,,image/america.png,image/spain.png,,,,,,,,,,,2,america,spain,,,,,,,,,,,"[""lshift""]",[1.1911000000238232],0,14,14,13,1,
21,1,2023-09-05_18h32.55.031,exp_g1,2022.2.5,MacIntel,60.0024001,,,,,,,,25,l2,t,es,na,audio/025.wav,,l2_t_es_na_025,,,,,,,image/america.png,image/spain.png,,,,,,,,,,,2,america,spain,,,,,,,,,,,"[""lshift"",""rshift""]","[1.289800000011951,2.1524000000357546]",0,15,15,39,1,1
21,1,2023-09-05_18h32.55.031,exp_g1,2022.2.5,MacIntel,60.0024001,,,,,,,,98,l2,f,en,na,audio/098.wav,,l2_f_en_na_098,,,,,,,image/america.png,image/spain.png,,,,,,,,,,,2,america,spain,,,,,,,,,,,"[""lshift""]",[1.2858000000119318],0,16,16,2,1,
21,1,2023-09-05_18h32.55.031,exp_g1,2022.2.5,MacIntel,60.0024001,,,,,,,,100,l2,f,en,na,audio/100.wav,,l2_f_en_na_100,,,,,,,image/america.png,image/spain.png,,,,,,,,,,,2,america,spain,,,,,,,,,,,"[""lshift""]",[1.289000000000044],0,17,17,4,1,
21,1,2023-09-05_18h32.55.031,exp_g1,2022.2.5,MacIntel,60.0024001,,,,,,,,126,l2,f,sp,na,audio/126.wav,,l2_f_sp_na_126,,,,,,,image/america.png,image/spain.png,,,,,,,,,,,2,america,spain,,,,,,,,,,,"[""rshift""]",[1.1846999999880836],0,18,18,30,1,
21,1,2023-09-05_18h32.55.031,exp_g1,2022.2.5,MacIntel,60.0024001,,,,,,,,120,l2,f,se,na,audio/120.wav,,l2_f_se_na_120,,,,,,,image/america.png,image/spain.png,,,,,,,,,,,2,america,spain,,,,,,,,,,,"[""rshift"",""lshift""]","[1.333500000000015,2.46759999996425]",0,19,19,24,1,1
21,1,2023-09-05_18h32.55.031,exp_g1,2022.2.5,MacIntel,60.0024001,,,,,,,,24,l2,t,es,na,audio/024.wav,,l2_t_es_na_024,,,,,,,image/america.png,image/spain.png,,,,,,,,,,,2,america,spain,,,,,,,,,,,"[""lshift"",""rshift""]","[1.356099999964215,2.206599999964226]",0,20,20,38,1,1
21,1,2023-09-05_18h32.55.031,exp_g1,2022.2.5,MacIntel,60.0024001,,,,,,,,168,l2,t,es,f0c,audio/168.wav,,l2_t_es_f0c_168,,,,,,,image/america.png,image/spain.png,,,,,,,,,,,2,america,spain,,,,,,,,,,,"[""lshift"",""rshift""]","[1.507299999952295,2.091799999952343]",0,21,21,52,1,1
21,1,2023-09-05_18h32.55.031,exp_g1,2022.2.5,MacIntel,60.0024001,,,,,,,,162,l2,t,es,f0c,audio/162.wav,,l2_t_es_f0c_162,,,,,,,image/america.png,image/spain.png,,,,,,,,,,,2,america,spain,,,,,,,,,,,"[""lshift"",""rshift""]","[1.475500000000011,2.10269999998809]",0,22,22,46,1,1
21,1,2023-09-05_18h32.55.031,exp_g1,2022.2.5,MacIntel,60.0024001,,,,,,,,107,l2,f,en,na,audio/107.wav,,l2_f_en_na_107,,,,,,,image/america.png,image/spain.png,,,,,,,,,,,2,america,spain,,,,,,,,,,,"[""lshift""]",[1.218999999999994],0,23,23,11,1,
21,1,2023-09-05_18h32.55.031,exp_g1,2022.2.5,MacIntel,60.0024001,,,,,,,,125,l2,f,sp,na,audio/125.wav,,l2_f_sp_na_125,,,,,,,image/america.png,image/spain.png,,,,,,,,,,,2,america,spain,,,,,,,,,,,"[""lshift"",""rshift""]","[1.4191000000238887,2.5371000000238837]",0,24,24,29,1,
21,1,2023-09-05_18h32.55.031,exp_g1,2022.2.5,MacIntel,60.0024001,,,,,,,,118,l2,f,se,na,audio/118.wav,,l2_f_se_na_118,,,,,,,image/america.png,image/spain.png,,,,,,,,,,,2,america,spain,,,,,,,,,,,"[""rshift""]",[1.9293000000118923],0,25,25,22,1,1
21,1,2023-09-05_18h32.55.031,exp_g1,2022.2.5,MacIntel,60.0024001,,,,,,,,165,l2,t,es,f0c,audio/165.wav,,l2_t_es_f0c_165,,,,,,,image/america.png,image/spain.png,,,,,,,,,,,2,america,spain,,,,,,,,,,,"[""lshift"",""rshift""]","[1.3373000000119077,2.1348999999761418]",0,26,26,49,1,1
21,1,2023-09-05_18h32.55.031,exp_g1,2022.2.5,MacIntel,60.0024001,,,,,,,,163,l2,t,es,f0c,audio/163.wav,,l2_t_es_f0c_163,,,,,,,image/america.png,image/spain.png,,,,,,,,,,,2,america,spain,,,,,,,,,,,"[""lshift"",""rshift""]","[1.485099999964234,3.0324999999999704]",0,27,27,47,1,1
21,1,2023-09-05_18h32.55.031,exp_g1,2022.2.5,MacIntel,60.0024001,,,,,,,,23,l2,t,es,na,audio/023.wav,,l2_t_es_na_023,,,,,,,image/america.png,image/spain.png,,,,,,,,,,,2,america,spain,,,,,,,,,,,"[""lshift"",""rshift""]","[1.3206999999881077,2.144199999988075]",0,28,28,37,1,1
21,1,2023-09-05_18h32.55.031,exp_g1,2022.2.5,MacIntel,60.0024001,,,,,,,,113,l2,f,se,na,audio/113.wav,,l2_f_se_na_113,,,,,,,image/america.png,image/spain.png,,,,,,,,,,,2,america,spain,,,,,,,,,,,"[""rshift"",""lshift""]","[1.3830999999642017,2.257000000000005]",0,29,29,17,1,1
21,1,2023-09-05_18h32.55.031,exp_g1,2022.2.5,MacIntel,60.0024001,,,,,,,,128,l2,f,sp,na,audio/128.wav,,l2_f_sp_na_128,,,,,,,image/america.png,image/spain.png,,,,,,,,,,,2,america,spain,,,,,,,,,,,"[""rshift""]",[1.300699999988069],0,30,30,32,1,
21,1,2023-09-05_18h32.55.031,exp_g1,2022.2.5,MacIntel,60.0024001,,,,,,,,167,l2,t,es,f0c,audio/167.wav,,l2_t_es_f0c_167,,,,,,,image/america.png,image/spain.png,,,,,,,,,,,2,america,spain,,,,,,,,,,,"[""lshift"",""rshift""]","[1.422599999964234,2.2998999999761622]",0,31,31,51,1,1
21,1,2023-09-05_18h32.55.031,exp_g1,2022.2.5,MacIntel,60.0024001,,,,,,,,117,l2,f,se,na,audio/117.wav,,l2_f_se_na_117,,,,,,,image/america.png,image/spain.png,,,,,,,,,,,2,america,spain,,,,,,,,,,,"[""rshift"",""lshift""]","[1.3352000000476778,2.1637000000476974]",0,32,32,21,1,1
21,1,2023-09-05_18h32.55.031,exp_g1,2022.2.5,MacIntel,60.0024001,,,,,,,,26,l2,t,es,na,audio/026.wav,,l2_t_es_na_026,,,,,,,image/america.png,image/spain.png,,,,,,,,,,,2,america,spain,,,,,,,,,,,"[""lshift"",""rshift""]","[1.4004999999999654,2.250800000011907]",0,33,33,40,1,1
21,1,2023-09-05_18h32.55.031,exp_g1,2022.2.5,MacIntel,60.0024001,,,,,,,,161,l2,t,es,f0c,audio/161.wav,,l2_t_es_f0c_161,,,,,,,image/america.png,image/spain.png,,,,,,,,,,,2,america,spain,,,,,,,,,,,"[""lshift"",""rshift""]","[1.4207999999523508,2.045399999976098]",0,34,34,45,1,1
21,1,2023-09-05_18h32.55.031,exp_g1,2022.2.5,MacIntel,60.0024001,,,,,,,,96,l2,f,en,na,audio/096.wav,,l2_f_en_na_096,,,,,,,image/america.png,image/spain.png,,,,,,,,,,,2,america,spain,,,,,,,,,,,"[""lshift""]",[1.2355000000000018],0,35,35,0,1,
21,1,2023-09-05_18h32.55.031,exp_g1,2022.2.5,MacIntel,60.0024001,,,,,,,,112,l2,f,se,na,audio/112.wav,,l2_f_se_na_112,,,,,,,image/america.png,image/spain.png,,,,,,,,,,,2,america,spain,,,,,,,,,,,"[""rshift"",""lshift""]","[1.3559999999999945,2.217800000011948]",0,36,36,16,1,1
21,1,2023-09-05_18h32.55.031,exp_g1,2022.2.5,MacIntel,60.0024001,,,,,,,,106,l2,f,en,na,audio/106.wav,,l2_f_en_na_106,,,,,,,image/america.png,image/spain.png,,,,,,,,,,,2,america,spain,,,,,,,,,,,"[""lshift""]",[1.3696999999881427],0,37,37,10,1,
21,1,2023-09-05_18h32.55.031,exp_g1,2022.2.5,MacIntel,60.0024001,,,,,,,,130,l2,f,sp,na,audio/130.wav,,l2_f_sp_na_130,,,,,,,image/america.png,image/spain.png,,,,,,,,,,,2,america,spain,,,,,,,,,,,"[""rshift""]",[1.2701999999881082],0,38,38,34,1,
21,1,2023-09-05_18h32.55.031,exp_g1,2022.2.5,MacIntel,60.0024001,,,,,,,,122,l2,f,sp,na,audio/122.wav,,l2_f_sp_na_122,,,,,,,image/america.png,image/spain.png,,,,,,,,,,,2,america,spain,,,,,,,,,,,"[""rshift""]",[1.2499000000357228],0,39,39,26,1,
21,1,2023-09-05_18h32.55.031,exp_g1,2022.2.5,MacIntel,60.0024001,,,,,,,,103,l2,f,en,na,audio/103.wav,,l2_f_en_na_103,,,,,,,image/america.png,image/spain.png,,,,,,,,,,,2,america,spain,,,,,,,,,,,"[""lshift""]",[1.6335000000000264],0,40,40,7,1,
21,1,2023-09-05_18h32.55.031,exp_g1,2022.2.5,MacIntel,60.0024001,,,,,,,,115,l2,f,se,na,audio/115.wav,,l2_f_se_na_115,,,,,,,image/america.png,image/spain.png,,,,,,,,,,,2,america,spain,,,,,,,,,,,"[""rshift"",""lshift""]","[1.1984999999999673,2.0465000000000373]",0,41,41,19,1,1
21,1,2023-09-05_18h32.55.031,exp_g1,2022.2.5,MacIntel,60.0024001,,,,,,,,164,l2,t,es,f0c,audio/164.wav,,l2_t_es_f0c_164,,,,,,,image/america.png,image/spain.png,,,,,,,,,,,2,america,spain,,,,,,,,,,,"[""lshift"",""rshift""]","[1.5539000000356964,2.0692000000476582]",0,42,42,48,1,1
21,1,2023-09-05_18h32.55.031,exp_g1,2022.2.5,MacIntel,60.0024001,,,,,,,,127,l2,f,sp,na,audio/127.wav,,l2_f_sp_na_127,,,,,,,image/america.png,image/spain.png,,,,,,,,,,,2,america,spain,,,,,,,,,,,"[""rshift""]",[1.3769999999999527],0,43,43,31,1,
21,1,2023-09-05_18h32.55.031,exp_g1,2022.2.5,MacIntel,60.0024001,,,,,,,,111,l2,f,se,na,audio/111.wav,,l2_f_se_na_111,,,,,,,image/america.png,image/spain.png,,,,,,,,,,,2,america,spain,,,,,,,,,,,"[""rshift"",""lshift""]","[1.3194000000357846,2.135600000023828]",0,44,44,15,1,1
21,1,2023-09-05_18h32.55.031,exp_g1,2022.2.5,MacIntel,60.0024001,,,,,,,,28,l2,t,es,na,audio/028.wav,,l2_t_es_na_028,,,,,,,image/america.png,image/spain.png,,,,,,,,,,,2,america,spain,,,,,,,,,,,"[""lshift"",""rshift""]","[1.3999999999999773,2.284599999964257]",0,45,45,42,1,1
21,1,2023-09-05_18h32.55.031,exp_g1,2022.2.5,MacIntel,60.0024001,,,,,,,,114,l2,f,se,na,audio/114.wav,,l2_f_se_na_114,,,,,,,image/america.png,image/spain.png,,,,,,,,,,,2,america,spain,,,,,,,,,,,"[""rshift""]",[1.3348999999761872],0,46,46,18,1,1
21,1,2023-09-05_18h32.55.031,exp_g1,2022.2.5,MacIntel,60.0024001,,,,,,,,105,l2,f,en,na,audio/105.wav,,l2_f_en_na_105,,,,,,,image/america.png,image/spain.png,,,,,,,,,,,2,america,spain,,,,,,,,,,,"[""lshift""]",[1.2999999999999545],0,47,47,9,1,
21,1,2023-09-05_18h32.55.031,exp_g1,2022.2.5,MacIntel,60.0024001,,,,,,,,119,l2,f,se,na,audio/119.wav,,l2_f_se_na_119,,,,,,,image/america.png,image/spain.png,,,,,,,,,,,2,america,spain,,,,,,,,,,,"[""rshift"",""lshift""]","[1.2681000000238782,2.228800000012029]",0,48,48,23,1,1
21,1,2023-09-05_18h32.55.031,exp_g1,2022.2.5,MacIntel,60.0024001,,,,,,,,30,l2,t,es,na,audio/030.wav,,l2_t_es_na_030,,,,,,,image/america.png,image/spain.png,,,,,,,,,,,2,america,spain,,,,,,,,,,,"[""lshift"",""rshift""]","[1.333900000035669,2.31870000004767]",0,49,49,44,1,1
21,1,2023-09-05_18h32.55.031,exp_g1,2022.2.5,MacIntel,60.0024001,,,,,,,,129,l2,f,sp,na,audio/129.wav,,l2_f_sp_na_129,,,,,,,image/america.png,image/spain.png,,,,,,,,,,,2,america,spain,,,,,,,,,,,"[""rshift""]",[1.3850000000001046],0,50,50,33,1,
21,1,2023-09-05_18h32.55.031,exp_g1,2022.2.5,MacIntel,60.0024001,,,,,,,,170,l2,t,es,f0c,audio/170.wav,,l2_t_es_f0c_170,,,,,,,image/america.png,image/spain.png,,,,,,,,,,,2,america,spain,,,,,,,,,,,"[""lshift"",""rshift""]","[1.31870000004767,2.0592000000476673]",0,51,51,54,1,1
21,1,2023-09-05_18h32.55.031,exp_g1,2022.2.5,MacIntel,60.0024001,,,,,,,,99,l2,f,en,na,audio/099.wav,,l2_f_en_na_099,,,,,,,image/america.png,image/spain.png,,,,,,,,,,,2,america,spain,,,,,,,,,,,"[""lshift""]",[1.2498000000118736],0,52,52,3,1,
21,1,2023-09-05_18h32.55.031,exp_g1,2022.2.5,MacIntel,60.0024001,,,,,,,,121,l2,f,sp,na,audio/121.wav,,l2_f_sp_na_121,,,,,,,image/america.png,image/spain.png,,,,,,,,,,,2,america,spain,,,,,,,,,,,"[""rshift""]",[1.35140000003571],0,53,53,25,1,
21,1,2023-09-05_18h32.55.031,exp_g1,2022.2.5,MacIntel,60.0024001,,,,,,,,110,l2,f,en,na,audio/110.wav,,l2_f_en_na_110,,,,,,,image/america.png,image/spain.png,,,,,,,,,,,2,america,spain,,,,,,,,,,,"[""lshift""]",[1.5448000000119464],0,54,54,14,1,
21,1,2023-09-05_18h32.55.031,exp_g1,2022.2.5,MacIntel,60.0024001,,,,,,,,,,,,,,,,,,,,,,,,,,,,,,,,,,,,,,,,,,,,,,,,,,,,,,