participant,session,date,expName,psychopyVersion,OS,frameRate,exp1_trial_key.keys,exp1_trial_loop.thisRepN,exp1_trial_loop.thisTrialN,exp1_trial_loop.thisN,exp1_trial_loop.thisIndex,exp1_trial_loop.ran,num,list,cond,lang,type,sound_dir,phr,sent_code,mat,mat_num,emb_num,emb,cut,mat_f0_c,left,right,correct_img,correct_key,exp1_trial_key.rt,exp1_retrial.thisRepN,exp1_retrial.thisTrialN,exp1_retrial.thisN,exp1_retrial.thisIndex,exp1_retrial.ran,exp1_key.keys,exp1_key.corr,exp1_key.rt,exp1_loop.thisRepN,exp1_loop.thisTrialN,exp1_loop.thisN,exp1_loop.thisIndex,exp1_loop.ran,exp_num,image,image_alt,left_img,right_img,image_dir,exp2_trial_key.keys,exp2_trial_key.rt,exp2_retrial.thisRepN,exp2_retrial.thisTrialN,exp2_retrial.thisN,exp2_retrial.thisIndex,exp2_retrial.ran,exp2_key.keys,exp2_key.rt,exp2_loop.thisRepN,exp2_loop.thisTrialN,exp2_loop.thisN,exp2_loop.thisIndex,exp2_loop.ran,cs
070,001,2023-09-22_13h39.35.259,exp_g1,2022.2.5,MacIntel,60.0024001,,,,,,,,,,,,,,,,,,,,,,,,,,,,,,,,,,,,,,,,,,,,,,,,,,,,,,,,,,,
070,001,2023-09-22_13h39.35.259,exp_g1,2022.2.5,MacIntel,60.0024001,,0,0,0,0,1,tr1,lt,tr,en,na,practice_trial/audio/tr1.wav,Where are your kids?,lt_tr_en_na_tr1,-,-,-,-,-,-,image/kids.png,image/plates.png,kids,lshift,,,,,,,,,,,,,,,,,,,,,,,,,,,,,,,,,,,
070,001,2023-09-22_13h39.35.259,exp_g1,2022.2.5,MacIntel,60.0024001,"[""lshift""]",0,1,1,1,1,tr2,lt,tr,en,na,practice_trial/audio/tr2.wav,Who is buying my car?,lt_tr_en_na_tr2,-,-,-,-,-,-,image/bag.png,image/car.png,car,rshift,[0.19269999999553988],,,,,,,,,,,,,,,,,,,,,,,,,,,,,,,,,,
070,001,2023-09-22_13h39.35.259,exp_g1,2022.2.5,MacIntel,60.0024001,,0,2,2,2,1,tr3,lt,tr,sp,na,practice_trial/audio/tr3.wav,¿Dónde está mi perro?,lt_tr_sp_na_tr3,-,-,-,-,-,-,image/dog.png,image/grandma.png,dog,lshift,,,,,,,,,,,,,,,,,,,,,,,,,,,,,,,,,,,
070,001,2023-09-22_13h39.35.259,exp_g1,2022.2.5,MacIntel,60.0024001,"[""rshift""]",0,3,3,3,1,tr4,lt,tr,sp,na,practice_trial/audio/tr4.wav,¿De quién es la bolsa?,lt_tr_sp_na_tr4,-,-,-,-,-,-,image/shirt.png,image/bag.png,bag,rshift,[2.7842999999970175],,,,,,,,,,,,,,,,,,,,,,,,,,,,,,,,,,
070,001,2023-09-22_13h39.35.259,exp_g1,2022.2.5,MacIntel,60.0024001,"[""lshift""]",0,4,4,4,1,tr5,lt,tr,se,na,practice_trial/audio/tr5.wav,¿Dónde encontraste sus donuts?,lt_tr_se_na_tr5,-,-,-,-,-,-,image/donut.png,image/cups.png,donut,lshift,[3.3031000000014927],,,,,,,,,,,,,,,,,,,,,,,,,,,,,,,,,,
070,001,2023-09-22_13h39.35.259,exp_g1,2022.2.5,MacIntel,60.0024001,"[""rshift""]",0,5,5,5,1,tr6,lt,tr,se,na,practice_trial/audio/tr6.wav,¿Cuándo compraste tu sweater?,lt_tr_se_na_tr6,-,-,-,-,-,-,image/chair.png,image/sweater.png,sweater,rshift,[2.7394000000059577],,,,,,,,,,,,,,,,,,,,,,,,,,,,,,,,,,
070,001,2023-09-22_13h39.35.259,exp_g1,2022.2.5,MacIntel,60.0024001,"[""lshift""]",0,6,6,6,1,tr7,lt,tr,es,na,practice_trial/audio/tr7.wav,Why do you have my camisa?,lt_tr_es_na_tr7,-,-,-,-,-,-,image/shirt.png,image/wallet.png,shirt,lshift,[3.0508000000044717],,,,,,,,,,,,,,,,,,,,,,,,,,,,,,,,,,
070,001,2023-09-22_13h39.35.259,exp_g1,2022.2.5,MacIntel,60.0024001,"[""rshift""]",0,7,7,7,1,tr8,lt,tr,es,na,practice_trial/audio/tr8.wav,Where did you find his chanclas?,lt_tr_es_na_tr8,-,-,-,-,-,-,image/key.png,image/flipflops.png,flipflops,rshift,[2.2066000000014867],,,,,,,,,,,,,,,,,,,,,,,,,,,,,,,,,,
070,001,2023-09-22_13h39.35.259,exp_g1,2022.2.5,MacIntel,60.0024001,,,,,,,,,,,,,,,,,,,,,,,,,,0,0,0,0,1,,,,,,,,,,,,,,,,,,,,,,,,,,,,,
070,001,2023-09-22_13h39.35.259,exp_g1,2022.2.5,MacIntel,60.0024001,"[""lshift""]",0,0,0,0,1,tr1,lt,tr,en,na,practice_trial/audio/tr1.wav,Where are your kids?,lt_tr_en_na_tr1,-,-,-,-,-,-,image/kids.png,image/plates.png,kids,lshift,[1.8234999999999957],,,,,,,,,,,,,,,,,,,,,,,,,,,,,,,,,,
070,001,2023-09-22_13h39.35.259,exp_g1,2022.2.5,MacIntel,60.0024001,"[""rshift""]",0,1,1,1,1,tr2,lt,tr,en,na,practice_trial/audio/tr2.wav,Who is buying my car?,lt_tr_en_na_tr2,-,-,-,-,-,-,image/bag.png,image/car.png,car,rshift,[2.3122000000029743],,,,,,,,,,,,,,,,,,,,,,,,,,,,,,,,,,
070,001,2023-09-22_13h39.35.259,exp_g1,2022.2.5,MacIntel,60.0024001,"[""lshift""]",0,2,2,2,1,tr3,lt,tr,sp,na,practice_trial/audio/tr3.wav,¿Dónde está mi perro?,lt_tr_sp_na_tr3,-,-,-,-,-,-,image/dog.png,image/grandma.png,dog,lshift,[2.0526000000014903],,,,,,,,,,,,,,,,,,,,,,,,,,,,,,,,,,
070,001,2023-09-22_13h39.35.259,exp_g1,2022.2.5,MacIntel,60.0024001,"[""rshift""]",0,3,3,3,1,tr4,lt,tr,sp,na,practice_trial/audio/tr4.wav,¿De quién es la bolsa?,lt_tr_sp_na_tr4,-,-,-,-,-,-,image/shirt.png,image/bag.png,bag,rshift,[2.585199999995524],,,,,,,,,,,,,,,,,,,,,,,,,,,,,,,,,,
070,001,2023-09-22_13h39.35.259,exp_g1,2022.2.5,MacIntel,60.0024001,"[""lshift""]",0,4,4,4,1,tr5,lt,tr,se,na,practice_trial/audio/tr5.wav,¿Dónde encontraste sus donuts?,lt_tr_se_na_tr5,-,-,-,-,-,-,image/donut.png,image/cups.png,donut,lshift,[2.7278000000044926],,,,,,,,,,,,,,,,,,,,,,,,,,,,,,,,,,
070,001,2023-09-22_13h39.35.259,exp_g1,2022.2.5,MacIntel,60.0024001,"[""rshift""]",0,5,5,5,1,tr6,lt,tr,se,na,practice_trial/audio/tr6.wav,¿Cuándo compraste tu sweater?,lt_tr_se_na_tr6,-,-,-,-,-,-,image/chair.png,image/sweater.png,sweater,rshift,[2.5147999999969954],,,,,,,,,,,,,,,,,,,,,,,,,,,,,,,,,,
070,001,2023-09-22_13h39.35.259,exp_g1,2022.2.5,MacIntel,60.0024001,"[""lshift""]",0,6,6,6,1,tr7,lt,tr,es,na,practice_trial/audio/tr7.wav,Why do you have my camisa?,lt_tr_es_na_tr7,-,-,-,-,-,-,image/shirt.png,image/wallet.png,shirt,lshift,[2.492600000001488],,,,,,,,,,,,,,,,,,,,,,,,,,,,,,,,,,
070,001,2023-09-22_13h39.35.259,exp_g1,2022.2.5,MacIntel,60.0024001,"[""rshift""]",0,7,7,7,1,tr8,lt,tr,es,na,practice_trial/audio/tr8.wav,Where did you find his chanclas?,lt_tr_es_na_tr8,-,-,-,-,-,-,image/key.png,image/flipflops.png,flipflops,rshift,[2.103600000001478],,,,,,,,,,,,,,,,,,,,,,,,,,,,,,,,,,
070,001,2023-09-22_13h39.35.259,exp_g1,2022.2.5,MacIntel,60.0024001,,,,,,,,,,,,,,,,,,,,,,,,,,,,,,,,,,,,,,,,,,,,,,,,,,,,,,,,,,,
070,001,2023-09-22_13h39.35.259,exp_g1,2022.2.5,MacIntel,60.0024001,,,,,,,139,l1,t,es,f0u,audio/139.wav,,l1_t_es_f0u_139,,,,,,,image/restaurant.png,image/hotel.png,restaurant,lshift,,,,,,,lshift,1,2.8424,0,0,0,53,1,1,restaurant,hotel,restaurant,hotel,,,,,,,,,,,,,,,,
070,001,2023-09-22_13h39.35.259,exp_g1,2022.2.5,MacIntel,60.0024001,,,,,,,092,l1,f,sp,na,audio/092.wav,,l1_f_sp_na_092,,,,,,,image/armchair.png,image/dog.png,armchair,lshift,,,,,,,lshift,1,2.6774,0,1,1,31,1,1,armchair,dog,armchair,dog,,,,,,,,,,,,,,,,
070,001,2023-09-22_13h39.35.259,exp_g1,2022.2.5,MacIntel,60.0024001,,,,,,,094,l1,f,sp,na,audio/094.wav,,l1_f_sp_na_094,,,,,,,image/beer.png,image/horchata.png,beer,lshift,,,,,,,lshift,1,3.3039,0,2,2,33,1,1,beer,horchata,beer,horchata,,,,,,,,,,,,,,,,
070,001,2023-09-22_13h39.35.259,exp_g1,2022.2.5,MacIntel,60.0024001,,,,,,,062,l1,f,en,na,audio/062.wav,,l1_f_en_na_062,,,,,,,image/shoe.png,image/ring.png,shoe,lshift,,,,,,,lshift,1,2.2569,0,3,3,1,1,1,shoe,ring,shoe,ring,,,,,,,,,,,,,,,,
070,001,2023-09-22_13h39.35.259,exp_g1,2022.2.5,MacIntel,60.0024001,,,,,,,019,l1,t,es,na,audio/019.wav,,l1_t_es_na_019,,,,,,,image/boy.png,image/dog.png,boy,lshift,,,,,,,lshift,1,3.196,0,4,4,43,1,1,boy,dog,boy,dog,,,,,,,,,,,,,,,,
070,001,2023-09-22_13h39.35.259,exp_g1,2022.2.5,MacIntel,60.0024001,,,,,,,012,l1,t,es,na,audio/012.wav,,l1_t_es_na_012,,,,,,,image/newspaper.png,image/book.png,book,rshift,,,,,,,rshift,1,2.8514,0,5,5,36,1,1,book,newspaper,newspaper,book,,,,,,,,,,,,,,,,
070,001,2023-09-22_13h39.35.259,exp_g1,2022.2.5,MacIntel,60.0024001,,,,,,,061,l1,f,en,na,audio/061.wav,,l1_f_en_na_061,,,,,,,image/cat.png,image/dog.png,dog,rshift,,,,,,,rshift,1,2.2506,0,6,6,0,1,1,dog,cat,cat,dog,image/,,,,,,,,,,,,,,,
070,001,2023-09-22_13h39.35.259,exp_g1,2022.2.5,MacIntel,60.0024001,,,,,,,133,l1,t,es,f0u,audio/133.wav,,l1_t_es_f0u_133,,,,,,,image/cellphone.png,image/book.png,cellphone,lshift,,,,,,,lshift,1,2.4774,0,7,7,47,1,1,cellphone,book,cellphone,book,,,,,,,,,,,,,,,,
070,001,2023-09-22_13h39.35.259,exp_g1,2022.2.5,MacIntel,60.0024001,,,,,,,074,l1,f,en,na,audio/074.wav,,l1_f_en_na_074,,,,,,,image/boy.png,image/woman.png,boy,lshift,,,,,,,lshift,1,2.0088,0,8,8,13,1,1,boy,woman,boy,woman,,,,,,,,,,,,,,,,
070,001,2023-09-22_13h39.35.259,exp_g1,2022.2.5,MacIntel,60.0024001,,,,,,,131,l1,t,es,f0u,audio/131.wav,,l1_t_es_f0u_131,,,,,,,image/cat.png,image/flower.png,cat,lshift,,,,,,,lshift,1,3.2011,0,9,9,45,1,1,cat,flower,cat,flower,,,,,,,,,,,,,,,,
070,001,2023-09-22_13h39.35.259,exp_g1,2022.2.5,MacIntel,60.0024001,,,,,,,091,l1,f,sp,na,audio/091.wav,,l1_f_sp_na_091,,,,,,,image/backpack.png,image/bracelet.png,bracelet,rshift,,,,,,,rshift,1,3.1691,0,10,10,30,1,1,bracelet,backpack,backpack,bracelet,,,,,,,,,,,,,,,,
070,001,2023-09-22_13h39.35.259,exp_g1,2022.2.5,MacIntel,60.0024001,,,,,,,071,l1,f,en,na,audio/071.wav,,l1_f_en_na_071,,,,,,,image/wallet.png,image/plane.png,plane,rshift,,,,,,,rshift,1,2.8546,0,11,11,10,1,1,plane,wallet,wallet,plane,,,,,,,,,,,,,,,,
070,001,2023-09-22_13h39.35.259,exp_g1,2022.2.5,MacIntel,60.0024001,,,,,,,089,l1,f,sp,na,audio/089.wav,,l1_f_sp_na_089,,,,,,,image/bed.png,image/wallet.png,wallet,rshift,,,,,,,,0,,0,12,12,28,1,1,wallet,bed,bed,wallet,,,,,,,,,,,,,,,,
070,001,2023-09-22_13h39.35.259,exp_g1,2022.2.5,MacIntel,60.0024001,,,,,,,081,l1,f,se,na,audio/081.wav,,l1_f_se_na_081,,,,,,,image/boxers.png,image/sweatpants.png,sweatpants,rshift,,,,,,,rshift,1,3.3759,0,13,13,20,1,1,sweatpants,boxers,boxers,sweatpants,,,,,,,,,,,,,,,,
070,001,2023-09-22_13h39.35.259,exp_g1,2022.2.5,MacIntel,60.0024001,,,,,,,134,l1,t,es,f0u,audio/134.wav,,l1_t_es_f0u_134,,,,,,,image/basket.png,image/truck.png,truck,rshift,,,,,,,rshift,1,2.6907,0,14,14,48,1,1,truck,basket,basket,truck,,,,,,,,,,,,,,,,
070,001,2023-09-22_13h39.35.259,exp_g1,2022.2.5,MacIntel,60.0024001,,,,,,,138,l1,t,es,f0u,audio/138.wav,,l1_t_es_f0u_138,,,,,,,image/pants.png,image/shirt.png,shirt,rshift,,,,,,,rshift,1,2.6115,0,15,15,52,1,1,shirt,pants,pants,shirt,,,,,,,,,,,,,,,,
070,001,2023-09-22_13h39.35.259,exp_g1,2022.2.5,MacIntel,60.0024001,,,,,,,079,l1,f,se,na,audio/079.wav,,l1_f_se_na_079,,,,,,,image/sweatpants.png,image/jeans.png,jeans,rshift,,,,,,,rshift,1,2.4808,0,16,16,18,1,1,jeans,sweatpants,sweatpants,jeans,,,,,,,,,,,,,,,,
070,001,2023-09-22_13h39.35.259,exp_g1,2022.2.5,MacIntel,60.0024001,,,,,,,082,l1,f,se,na,audio/082.wav,,l1_f_se_na_082,,,,,,,image/mickeymouse.png,image/spongebob.png,mickeymouse,lshift,,,,,,,lshift,1,2.3751,0,17,17,21,1,1,mickeymouse,spongebob,mickeymouse,spongebob,,,,,,,,,,,,,,,,
070,001,2023-09-22_13h39.35.259,exp_g1,2022.2.5,MacIntel,60.0024001,,,,,,,087,l1,f,sp,na,audio/087.wav,,l1_f_sp_na_087,,,,,,,image/desk.png,image/bed.png,bed,rshift,,,,,,,rshift,1,2.5048,0,18,18,26,1,1,bed,desk,desk,bed,,,,,,,,,,,,,,,,
070,001,2023-09-22_13h39.35.259,exp_g1,2022.2.5,MacIntel,60.0024001,,,,,,,075,l1,f,en,na,audio/075.wav,,l1_f_en_na_075,,,,,,,image/dog.png,image/fish.png,fish,rshift,,,,,,,rshift,1,2.3945,0,19,19,14,1,1,fish,dog,dog,fish,,,,,,,,,,,,,,,,
070,001,2023-09-22_13h39.35.259,exp_g1,2022.2.5,MacIntel,60.0024001,,,,,,,085,l1,f,se,na,audio/085.wav,,l1_f_se_na_085,,,,,,,image/loafers.png,image/sneakers.png,sneakers,rshift,,,,,,,rshift,1,2.674,0,20,20,24,1,1,sneakers,loafers,loafers,sneakers,,,,,,,,,,,,,,,,
070,001,2023-09-22_13h39.35.259,exp_g1,2022.2.5,MacIntel,60.0024001,,,,,,,135,l1,t,es,f0u,audio/135.wav,,l1_t_es_f0u_135,,,,,,,image/flipflops.png,image/flower.png,flipflops,lshift,,,,,,,lshift,1,2.3796,0,21,21,49,1,1,flipflops,flower,flipflops,flower,,,,,,,,,,,,,,,,
070,001,2023-09-22_13h39.35.259,exp_g1,2022.2.5,MacIntel,60.0024001,,,,,,,063,l1,f,en,na,audio/063.wav,,l1_f_en_na_063,,,,,,,image/woman.png,image/man.png,man,rshift,,,,,,,rshift,1,1.7243,0,22,22,2,1,1,man,woman,woman,man,,,,,,,,,,,,,,,,
070,001,2023-09-22_13h39.35.259,exp_g1,2022.2.5,MacIntel,60.0024001,,,,,,,064,l1,f,en,na,audio/064.wav,,l1_f_en_na_064,,,,,,,image/wallet.png,image/key.png,wallet,lshift,,,,,,,lshift,1,1.7684,0,23,23,3,1,1,wallet,key,wallet,key,,,,,,,,,,,,,,,,
070,001,2023-09-22_13h39.35.259,exp_g1,2022.2.5,MacIntel,60.0024001,,,,,,,013,l1,t,es,na,audio/013.wav,,l1_t_es_na_013,,,,,,,image/beer.png,image/wine.png,beer,lshift,,,,,,,lshift,1,2.9699,0,24,24,37,1,1,beer,wine,beer,wine,,,,,,,,,,,,,,,,
070,001,2023-09-22_13h39.35.259,exp_g1,2022.2.5,MacIntel,60.0024001,,,,,,,067,l1,f,en,na,audio/067.wav,,l1_f_en_na_067,,,,,,,image/beer.png,image/glasses.png,glasses,rshift,,,,,,,rshift,1,2.299,0,25,25,6,1,1,glasses,beer,beer,glasses,,,,,,,,,,,,,,,,
070,001,2023-09-22_13h39.35.259,exp_g1,2022.2.5,MacIntel,60.0024001,,,,,,,072,l1,f,en,na,audio/072.wav,,l1_f_en_na_072,,,,,,,image/dog.png,image/fish.png,dog,lshift,,,,,,,rshift,0,2.2039,0,26,26,11,1,1,dog,fish,dog,fish,,,,,,,,,,,,,,,,
070,001,2023-09-22_13h39.35.259,exp_g1,2022.2.5,MacIntel,60.0024001,,,,,,,084,l1,f,se,na,audio/084.wav,,l1_f_se_na_084,,,,,,,image/penthouse.png,image/rocket.png,penthouse,lshift,,,,,,,lshift,1,3.8525,0,27,27,23,1,1,penthouse,rocket,penthouse,rocket,,,,,,,,,,,,,,,,
070,001,2023-09-22_13h39.35.259,exp_g1,2022.2.5,MacIntel,60.0024001,,,,,,,080,l1,f,se,na,audio/080.wav,,l1_f_se_na_080,,,,,,,image/mouse.png,image/rat.png,mouse,lshift,,,,,,,rshift,0,3.523,0,28,28,19,1,1,mouse,rat,mouse,rat,,,,,,,,,,,,,,,,
070,001,2023-09-22_13h39.35.259,exp_g1,2022.2.5,MacIntel,60.0024001,,,,,,,088,l1,f,sp,na,audio/088.wav,,l1_f_sp_na_088,,,,,,,image/book.png,image/cellphone.png,book,lshift,,,,,,,lshift,1,2.8451,0,29,29,27,1,1,book,cellphone,book,cellphone,,,,,,,,,,,,,,,,
070,001,2023-09-22_13h39.35.259,exp_g1,2022.2.5,MacIntel,60.0024001,,,,,,,090,l1,f,sp,na,audio/090.wav,,l1_f_sp_na_090,,,,,,,image/bag.png,image/bottle.png,bag,lshift,,,,,,,lshift,1,3.2809,0,30,30,29,1,1,bag,bottle,bag,bottle,,,,,,,,,,,,,,,,
070,001,2023-09-22_13h39.35.259,exp_g1,2022.2.5,MacIntel,60.0024001,,,,,,,070,l1,f,en,na,audio/070.wav,,l1_f_en_na_070,,,,,,,image/computer.png,image/bed.png,computer,lshift,,,,,,,lshift,1,3.1091,0,31,31,9,1,1,computer,bed,computer,bed,,,,,,,,,,,,,,,,
070,001,2023-09-22_13h39.35.259,exp_g1,2022.2.5,MacIntel,60.0024001,,,,,,,073,l1,f,en,na,audio/073.wav,,l1_f_en_na_073,,,,,,,image/socks.png,image/tshirt.png,tshirt,rshift,,,,,,,rshift,1,2.5228,0,32,32,12,1,1,tshirt,socks,socks,tshirt,,,,,,,,,,,,,,,,
070,001,2023-09-22_13h39.35.259,exp_g1,2022.2.5,MacIntel,60.0024001,,,,,,,066,l1,f,en,na,audio/066.wav,,l1_f_en_na_066,,,,,,,image/bag.png,image/scarf.png,bag,lshift,,,,,,,lshift,1,2.6242,0,33,33,5,1,1,bag,scarf,bag,scarf,,,,,,,,,,,,,,,,
070,001,2023-09-22_13h39.35.259,exp_g1,2022.2.5,MacIntel,60.0024001,,,,,,,136,l1,t,es,f0u,audio/136.wav,,l1_t_es_f0u_136,,,,,,,image/city.png,image/village.png,village,rshift,,,,,,,rshift,1,2.7888,0,34,34,50,1,1,village,city,city,village,,,,,,,,,,,,,,,,
070,001,2023-09-22_13h39.35.259,exp_g1,2022.2.5,MacIntel,60.0024001,,,,,,,076,l1,f,se,na,audio/076.wav,,l1_f_se_na_076,,,,,,,image/hotdog.png,image/burger.png,hotdog,lshift,,,,,,,lshift,1,2.1603,0,35,35,15,1,1,hotdog,burger,hotdog,burger,,,,,,,,,,,,,,,,
070,001,2023-09-22_13h39.35.259,exp_g1,2022.2.5,MacIntel,60.0024001,,,,,,,132,l1,t,es,f0u,audio/132.wav,,l1_t_es_f0u_132,,,,,,,image/car.png,image/grandma.png,grandma,rshift,,,,,,,rshift,1,3.0368,0,36,36,46,1,1,grandma,car,car,grandma,,,,,,,,,,,,,,,,
070,001,2023-09-22_13h39.35.259,exp_g1,2022.2.5,MacIntel,60.0024001,,,,,,,093,l1,f,sp,na,audio/093.wav,,l1_f_sp_na_093,,,,,,,image/boy.png,image/book.png,book,rshift,,,,,,,rshift,1,2.3502,0,37,37,32,1,1,book,boy,boy,book,,,,,,,,,,,,,,,,
070,001,2023-09-22_13h39.35.259,exp_g1,2022.2.5,MacIntel,60.0024001,,,,,,,016,l1,t,es,na,audio/016.wav,,l1_t_es_na_016,,,,,,,image/flipflops.png,image/bag.png,bag,rshift,,,,,,,rshift,1,3.3809,0,38,38,40,1,1,bag,flipflops,flipflops,bag,,,,,,,,,,,,,,,,
070,001,2023-09-22_13h39.35.259,exp_g1,2022.2.5,MacIntel,60.0024001,,,,,,,011,l1,t,es,na,audio/011.wav,,l1_t_es_na_011,,,,,,,image/armchair.png,image/bed.png,armchair,lshift,,,,,,,lshift,1,2.7305,0,39,39,35,1,1,armchair,bed,armchair,bed,,,,,,,,,,,,,,,,
070,001,2023-09-22_13h39.35.259,exp_g1,2022.2.5,MacIntel,60.0024001,,,,,,,068,l1,f,en,na,audio/068.wav,,l1_f_en_na_068,,,,,,,image/socks.png,image/book.png,socks,lshift,,,,,,,lshift,1,2.4115,0,40,40,7,1,1,socks,book,socks,book,,,,,,,,,,,,,,,,
070,001,2023-09-22_13h39.35.259,exp_g1,2022.2.5,MacIntel,60.0024001,,,,,,,020,l1,t,es,na,audio/020.wav,,l1_t_es_na_020,,,,,,,image/cellphone.png,image/backpack.png,backpack,rshift,,,,,,,rshift,1,2.7099,0,41,41,44,1,1,backpack,cellphone,cellphone,backpack,,,,,,,,,,,,,,,,
070,001,2023-09-22_13h39.35.259,exp_g1,2022.2.5,MacIntel,60.0024001,,,,,,,083,l1,f,se,na,audio/083.wav,,l1_f_se_na_083,,,,,,,image/donut.png,image/burger.png,burger,rshift,,,,,,,rshift,1,2.3182,0,42,42,22,1,1,burger,donut,donut,burger,,,,,,,,,,,,,,,,
070,001,2023-09-22_13h39.35.259,exp_g1,2022.2.5,MacIntel,60.0024001,,,,,,,077,l1,f,se,na,audio/077.wav,,l1_f_se_na_077,,,,,,,image/mashedpotatoes.png,image/donut.png,donut,rshift,,,,,,,rshift,1,2.2601,0,43,43,16,1,1,donut,mashedpotatoes,mashedpotatoes,donut,,,,,,,,,,,,,,,,
070,001,2023-09-22_13h39.35.259,exp_g1,2022.2.5,MacIntel,60.0024001,,,,,,,015,l1,t,es,na,audio/015.wav,,l1_t_es_na_015,,,,,,,image/glasses.png,image/jacket.png,glasses,lshift,,,,,,,lshift,1,2.6872,0,44,44,39,1,1,glasses,jacket,glasses,jacket,,,,,,,,,,,,,,,,
070,001,2023-09-22_13h39.35.259,exp_g1,2022.2.5,MacIntel,60.0024001,,,,,,,069,l1,f,en,na,audio/069.wav,,l1_f_en_na_069,,,,,,,image/bag.png,image/shirt.png,shirt,rshift,,,,,,,rshift,1,2.765,0,45,45,8,1,1,shirt,bag,bag,shirt,,,,,,,,,,,,,,,,
070,001,2023-09-22_13h39.35.259,exp_g1,2022.2.5,MacIntel,60.0024001,,,,,,,065,l1,f,en,na,audio/065.wav,,l1_f_en_na_065,,,,,,,image/computer.png,image/book.png,book,rshift,,,,,,,rshift,1,2.1296,0,46,46,4,1,1,book,computer,computer,book,,,,,,,,,,,,,,,,
070,001,2023-09-22_13h39.35.259,exp_g1,2022.2.5,MacIntel,60.0024001,,,,,,,014,l1,t,es,na,audio/014.wav,,l1_t_es_na_014,,,,,,,image/book.png,image/key.png,key,rshift,,,,,,,rshift,1,2.6667,0,47,47,38,1,1,key,book,book,key,,,,,,,,,,,,,,,,
070,001,2023-09-22_13h39.35.259,exp_g1,2022.2.5,MacIntel,60.0024001,,,,,,,078,l1,f,se,na,audio/078.wav,,l1_f_se_na_078,,,,,,,image/airpods.png,image/joycons.png,airpods,lshift,,,,,,,lshift,1,2.1811,0,48,48,17,1,1,airpods,joycons,airpods,joycons,,,,,,,,,,,,,,,,
070,001,2023-09-22_13h39.35.259,exp_g1,2022.2.5,MacIntel,60.0024001,,,,,,,017,l1,t,es,na,audio/017.wav,,l1_t_es_na_017,,,,,,,image/jug.png,image/cat.png,jug,lshift,,,,,,,lshift,1,2.9769,0,49,49,41,1,1,jug,cat,jug,cat,,,,,,,,,,,,,,,,
070,001,2023-09-22_13h39.35.259,exp_g1,2022.2.5,MacIntel,60.0024001,,,,,,,140,l1,t,es,f0u,audio/140.wav,,l1_t_es_f0u_140,,,,,,,image/ring.png,image/bracelet.png,bracelet,rshift,,,,,,,rshift,1,2.8118,0,50,50,54,1,1,bracelet,ring,ring,bracelet,,,,,,,,,,,,,,,,
070,001,2023-09-22_13h39.35.259,exp_g1,2022.2.5,MacIntel,60.0024001,,,,,,,086,l1,f,sp,na,audio/086.wav,,l1_f_sp_na_086,,,,,,,image/plates.png,image/glasses.png,plates,lshift,,,,,,,lshift,1,2.047,0,51,51,25,1,1,plates,glasses,plates,glasses,,,,,,,,,,,,,,,,
070,001,2023-09-22_13h39.35.259,exp_g1,2022.2.5,MacIntel,60.0024001,,,,,,,018,l1,t,es,na,audio/018.wav,,l1_t_es_na_018,,,,,,,image/cups.png,image/napkins.png,napkins,rshift,,,,,,,rshift,1,2.5008,0,52,52,42,1,1,napkins,cups,cups,napkins,,,,,,,,,,,,,,,,
070,001,2023-09-22_13h39.35.259,exp_g1,2022.2.5,MacIntel,60.0024001,,,,,,,137,l1,t,es,f0u,audio/137.wav,,l1_t_es_f0u_137,,,,,,,image/jacket.png,image/shirt.png,jacket,lshift,,,,,,,lshift,1,2.4776,0,53,53,51,1,1,jacket,shirt,jacket,shirt,,,,,,,,,,,,,,,,
070,001,2023-09-22_13h39.35.259,exp_g1,2022.2.5,MacIntel,60.0024001,,,,,,,095,l1,f,sp,na,audio/095.wav,,l1_f_sp_na_095,,,,,,,image/socks.png,image/key.png,key,rshift,,,,,,,rshift,1,2.18,0,54,54,34,1,1,key,socks,socks,key,,,,,,,,,,,,,,,,
070,001,2023-09-22_13h39.35.259,exp_g1,2022.2.5,MacIntel,60.0024001,,,,,,,,,,,,,,,,,,,,,,,,,,,,,,,,,,,,,,,,,,,,,,,,,,,,,,,,,,,
070,001,2023-09-22_13h39.35.259,exp_g1,2022.2.5,MacIntel,60.0024001,,,,,,,,,,,,,,,,,,,,,,,,,,,,,,,,,,,,,,,,,,,,,"[""lshift"",""rshift""]","[1.2837000000029661,2.0504999999999995]",0,0,0,0,1,,,,,,,,
070,001,2023-09-22_13h39.35.259,exp_g1,2022.2.5,MacIntel,60.0024001,,,,,,,,,,,,,,,,,,,,,,,,,,,,,,,,,,,,,,,,,,,,,,,,,,,,,,,,,,,
070,001,2023-09-22_13h39.35.259,exp_g1,2022.2.5,MacIntel,60.0024001,,,,,,,106,l2,f,en,na,audio/106.wav,,l2_f_en_na_106,,,,,,,image/america.png,image/spain.png,,,,,,,,,,,,,,,,,2,america,spain,,,,,,,,,,,"[""lshift"",""lshift""]","[1.7965999999940436,2.9478999999985263]",0,0,0,10,1,
070,001,2023-09-22_13h39.35.259,exp_g1,2022.2.5,MacIntel,60.0024001,,,,,,,028,l2,t,es,na,audio/028.wav,,l2_t_es_na_028,,,,,,,image/america.png,image/spain.png,,,,,,,,,,,,,,,,,2,america,spain,,,,,,,,,,,"[""lshift"",""rshift""]","[1.4812999999969634,2.383299999997007]",0,1,1,42,1,1
070,001,2023-09-22_13h39.35.259,exp_g1,2022.2.5,MacIntel,60.0024001,,,,,,,021,l2,t,es,na,audio/021.wav,,l2_t_es_na_021,,,,,,,image/america.png,image/spain.png,,,,,,,,,,,,,,,,,2,america,spain,,,,,,,,,,,"[""lshift"",""rshift""]","[1.2007999999970025,2.185199999995575]",0,2,2,35,1,1
070,001,2023-09-22_13h39.35.259,exp_g1,2022.2.5,MacIntel,60.0024001,,,,,,,108,l2,f,en,na,audio/108.wav,,l2_f_en_na_108,,,,,,,image/america.png,image/spain.png,,,,,,,,,,,,,,,,,2,america,spain,,,,,,,,,,,"[""lshift""]",[2.567200000002913],0,3,3,12,1,
070,001,2023-09-22_13h39.35.259,exp_g1,2022.2.5,MacIntel,60.0024001,,,,,,,167,l2,t,es,f0c,audio/167.wav,,l2_t_es_f0c_167,,,,,,,image/america.png,image/spain.png,,,,,,,,,,,,,,,,,2,america,spain,,,,,,,,,,,"[""lshift"",""rshift""]","[1.2000000000000455,2.7168999999985317]",0,4,4,51,1,1
070,001,2023-09-22_13h39.35.259,exp_g1,2022.2.5,MacIntel,60.0024001,,,,,,,168,l2,t,es,f0c,audio/168.wav,,l2_t_es_f0c_168,,,,,,,image/america.png,image/spain.png,,,,,,,,,,,,,,,,,2,america,spain,,,,,,,,,,,"[""lshift"",""rshift""]","[1.433499999999981,2.1837999999969497]",0,5,5,52,1,1
070,001,2023-09-22_13h39.35.259,exp_g1,2022.2.5,MacIntel,60.0024001,,,,,,,103,l2,f,en,na,audio/103.wav,,l2_f_en_na_103,,,,,,,image/america.png,image/spain.png,,,,,,,,,,,,,,,,,2,america,spain,,,,,,,,,,,"[""lshift"",""lshift""]","[1.1673000000045022,2.683300000004465]",0,6,6,7,1,
070,001,2023-09-22_13h39.35.259,exp_g1,2022.2.5,MacIntel,60.0024001,,,,,,,024,l2,t,es,na,audio/024.wav,,l2_t_es_na_024,,,,,,,image/america.png,image/spain.png,,,,,,,,,,,,,,,,,2,america,spain,,,,,,,,,,,"[""lshift"",""rshift""]","[1.1766000000014856,2.233000000000061]",0,7,7,38,1,1
070,001,2023-09-22_13h39.35.259,exp_g1,2022.2.5,MacIntel,60.0024001,,,,,,,110,l2,f,en,na,audio/110.wav,,l2_f_en_na_110,,,,,,,image/america.png,image/spain.png,,,,,,,,,,,,,,,,,2,america,spain,,,,,,,,,,,"[""lshift"",""lshift""]","[1.2408999999985326,3.318399999998519]",0,8,8,14,1,
070,001,2023-09-22_13h39.35.259,exp_g1,2022.2.5,MacIntel,60.0024001,,,,,,,165,l2,t,es,f0c,audio/165.wav,,l2_t_es_f0c_165,,,,,,,image/america.png,image/spain.png,,,,,,,,,,,,,,,,,2,america,spain,,,,,,,,,,,"[""lshift"",""rshift""]","[2.06899999999996,2.2002999999970143]",0,9,9,49,1,1
070,001,2023-09-22_13h39.35.259,exp_g1,2022.2.5,MacIntel,60.0024001,,,,,,,114,l2,f,se,na,audio/114.wav,,l2_f_se_na_114,,,,,,,image/america.png,image/spain.png,,,,,,,,,,,,,,,,,2,america,spain,,,,,,,,,,,"[""lshift"",""rshift"",""rshift""]","[1.152599999994095,1.4833999999984826,2.084500000000048]",0,10,10,18,1,1
070,001,2023-09-22_13h39.35.259,exp_g1,2022.2.5,MacIntel,60.0024001,,,,,,,162,l2,t,es,f0c,audio/162.wav,,l2_t_es_f0c_162,,,,,,,image/america.png,image/spain.png,,,,,,,,,,,,,,,,,2,america,spain,,,,,,,,,,,"[""lshift"",""rshift""]","[2.290299999997046,2.489500000000021]",0,11,11,46,1,1
070,001,2023-09-22_13h39.35.259,exp_g1,2022.2.5,MacIntel,60.0024001,,,,,,,128,l2,f,sp,na,audio/128.wav,,l2_f_sp_na_128,,,,,,,image/america.png,image/spain.png,,,,,,,,,,,,,,,,,2,america,spain,,,,,,,,,,,"[""rshift""]",[1.505299999997078],0,12,12,32,1,
070,001,2023-09-22_13h39.35.259,exp_g1,2022.2.5,MacIntel,60.0024001,,,,,,,025,l2,t,es,na,audio/025.wav,,l2_t_es_na_025,,,,,,,image/america.png,image/spain.png,,,,,,,,,,,,,,,,,2,america,spain,,,,,,,,,,,"[""lshift"",""rshift""]","[1.6507000000029848,2.3333999999985053]",0,13,13,39,1,1
070,001,2023-09-22_13h39.35.259,exp_g1,2022.2.5,MacIntel,60.0024001,,,,,,,029,l2,t,es,na,audio/029.wav,,l2_t_es_na_029,,,,,,,image/america.png,image/spain.png,,,,,,,,,,,,,,,,,2,america,spain,,,,,,,,,,,"[""lshift"",""rshift""]","[1.5326999999955433,2.584099999994123]",0,14,14,43,1,1
070,001,2023-09-22_13h39.35.259,exp_g1,2022.2.5,MacIntel,60.0024001,,,,,,,096,l2,f,en,na,audio/096.wav,,l2_f_en_na_096,,,,,,,image/america.png,image/spain.png,,,,,,,,,,,,,,,,,2,america,spain,,,,,,,,,,,"[""lshift""]",[1.6331999999955542],0,15,15,0,1,
070,001,2023-09-22_13h39.35.259,exp_g1,2022.2.5,MacIntel,60.0024001,,,,,,,117,l2,f,se,na,audio/117.wav,,l2_f_se_na_117,,,,,,,image/america.png,image/spain.png,,,,,,,,,,,,,,,,,2,america,spain,,,,,,,,,,,"[""rshift""]",[1.2888999999985344],0,16,16,21,1,1
070,001,2023-09-22_13h39.35.259,exp_g1,2022.2.5,MacIntel,60.0024001,,,,,,,023,l2,t,es,na,audio/023.wav,,l2_t_es_na_023,,,,,,,image/america.png,image/spain.png,,,,,,,,,,,,,,,,,2,america,spain,,,,,,,,,,,"[""lshift"",""rshift""]","[2.1673000000043885,2.5562000000029457]",0,17,17,37,1,1
070,001,2023-09-22_13h39.35.259,exp_g1,2022.2.5,MacIntel,60.0024001,,,,,,,119,l2,f,se,na,audio/119.wav,,l2_f_se_na_119,,,,,,,image/america.png,image/spain.png,,,,,,,,,,,,,,,,,2,america,spain,,,,,,,,,,,"[""rshift"",""lshift""]","[1.7508000000044603,2.906800000004523]",0,18,18,23,1,1
070,001,2023-09-22_13h39.35.259,exp_g1,2022.2.5,MacIntel,60.0024001,,,,,,,163,l2,t,es,f0c,audio/163.wav,,l2_t_es_f0c_163,,,,,,,image/america.png,image/spain.png,,,,,,,,,,,,,,,,,2,america,spain,,,,,,,,,,,"[""lshift"",""rshift""]","[1.683399999998528,3.217200000003004]",0,19,19,47,1,1
070,001,2023-09-22_13h39.35.259,exp_g1,2022.2.5,MacIntel,60.0024001,,,,,,,111,l2,f,se,na,audio/111.wav,,l2_f_se_na_111,,,,,,,image/america.png,image/spain.png,,,,,,,,,,,,,,,,,2,america,spain,,,,,,,,,,,"[""rshift"",""lshift""]","[1.433699999995497,2.333199999995486]",0,20,20,15,1,1
070,001,2023-09-22_13h39.35.259,exp_g1,2022.2.5,MacIntel,60.0024001,,,,,,,164,l2,t,es,f0c,audio/164.wav,,l2_t_es_f0c_164,,,,,,,image/america.png,image/spain.png,,,,,,,,,,,,,,,,,2,america,spain,,,,,,,,,,,"[""lshift"",""rshift""]","[1.3683999999985872,2.0728999999985263]",0,21,21,48,1,1
070,001,2023-09-22_13h39.35.259,exp_g1,2022.2.5,MacIntel,60.0024001,,,,,,,027,l2,t,es,na,audio/027.wav,,l2_t_es_na_027,,,,,,,image/america.png,image/spain.png,,,,,,,,,,,,,,,,,2,america,spain,,,,,,,,,,,"[""lshift"",""rshift""]","[1.4744999999999209,2.0668999999984408]",0,22,22,41,1,1
070,001,2023-09-22_13h39.35.259,exp_g1,2022.2.5,MacIntel,60.0024001,,,,,,,100,l2,f,en,na,audio/100.wav,,l2_f_en_na_100,,,,,,,image/america.png,image/spain.png,,,,,,,,,,,,,,,,,2,america,spain,,,,,,,,,,,"[""lshift"",""lshift""]","[1.3011000000014974,3.4014000000059923]",0,23,23,4,1,
070,001,2023-09-22_13h39.35.259,exp_g1,2022.2.5,MacIntel,60.0024001,,,,,,,122,l2,f,sp,na,audio/122.wav,,l2_f_sp_na_122,,,,,,,image/america.png,image/spain.png,,,,,,,,,,,,,,,,,2,america,spain,,,,,,,,,,,"[""rshift"",""rshift""]","[1.9171000000014828,3.234899999998447]",0,24,24,26,1,
070,001,2023-09-22_13h39.35.259,exp_g1,2022.2.5,MacIntel,60.0024001,,,,,,,124,l2,f,sp,na,audio/124.wav,,l2_f_sp_na_124,,,,,,,image/america.png,image/spain.png,,,,,,,,,,,,,,,,,2,america,spain,,,,,,,,,,,"[""rshift"",""rshift""]","[1.7553000000044676,3.217100000001551]",0,25,25,28,1,
070,001,2023-09-22_13h39.35.259,exp_g1,2022.2.5,MacIntel,60.0024001,,,,,,,104,l2,f,en,na,audio/104.wav,,l2_f_en_na_104,,,,,,,image/america.png,image/spain.png,,,,,,,,,,,,,,,,,2,america,spain,,,,,,,,,,,"[""lshift"",""lshift""]","[1.8700000000000045,3.8233000000044512]",0,26,26,8,1,
070,001,2023-09-22_13h39.35.259,exp_g1,2022.2.5,MacIntel,60.0024001,,,,,,,098,l2,f,en,na,audio/098.wav,,l2_f_en_na_098,,,,,,,image/america.png,image/spain.png,,,,,,,,,,,,,,,,,2,america,spain,,,,,,,,,,,"[""lshift"",""lshift""]","[1.800100000001521,2.66700000000003]",0,27,27,2,1,
070,001,2023-09-22_13h39.35.259,exp_g1,2022.2.5,MacIntel,60.0024001,,,,,,,123,l2,f,sp,na,audio/123.wav,,l2_f_sp_na_123,,,,,,,image/america.png,image/spain.png,,,,,,,,,,,,,,,,,2,america,spain,,,,,,,,,,,"[""rshift"",""rshift""]","[1.087400000005914,3.907400000005964]",0,28,28,27,1,
070,001,2023-09-22_13h39.35.259,exp_g1,2022.2.5,MacIntel,60.0024001,,,,,,,166,l2,t,es,f0c,audio/166.wav,,l2_t_es_f0c_166,,,,,,,image/america.png,image/spain.png,,,,,,,,,,,,,,,,,2,america,spain,,,,,,,,,,,"[""rshift"",""lshift"",""lshift"",""rshift""]","[1.259999999999991,1.8295000000000528,2.291800000004514,3.144400000006044]",0,29,29,50,1,1
070,001,2023-09-22_13h39.35.259,exp_g1,2022.2.5,MacIntel,60.0024001,,,,,,,116,l2,f,se,na,audio/116.wav,,l2_f_se_na_116,,,,,,,image/america.png,image/spain.png,,,,,,,,,,,,,,,,,2,america,spain,,,,,,,,,,,"[""rshift"",""lshift""]","[1.4862000000028956,3.789200000002893]",0,30,30,20,1,1
070,001,2023-09-22_13h39.35.259,exp_g1,2022.2.5,MacIntel,60.0024001,,,,,,,102,l2,f,en,na,audio/102.wav,,l2_f_en_na_102,,,,,,,image/america.png,image/spain.png,,,,,,,,,,,,,,,,,2,america,spain,,,,,,,,,,,"[""lshift"",""lshift""]","[1.4532999999969434,2.97010000000148]",0,31,31,6,1,
070,001,2023-09-22_13h39.35.259,exp_g1,2022.2.5,MacIntel,60.0024001,,,,,,,022,l2,t,es,na,audio/022.wav,,l2_t_es_na_022,,,,,,,image/america.png,image/spain.png,,,,,,,,,,,,,,,,,2,america,spain,,,,,,,,,,,"[""lshift"",""rshift""]","[1.8796999999955233,2.7613999999985026]",0,32,32,36,1,1
070,001,2023-09-22_13h39.35.259,exp_g1,2022.2.5,MacIntel,60.0024001,,,,,,,118,l2,f,se,na,audio/118.wav,,l2_f_se_na_118,,,,,,,image/america.png,image/spain.png,,,,,,,,,,,,,,,,,2,america,spain,,,,,,,,,,,"[""rshift"",""rshift""]","[2.2491000000014765,3.7670000000000528]",0,33,33,22,1,1
070,001,2023-09-22_13h39.35.259,exp_g1,2022.2.5,MacIntel,60.0024001,,,,,,,125,l2,f,sp,na,audio/125.wav,,l2_f_sp_na_125,,,,,,,image/america.png,image/spain.png,,,,,,,,,,,,,,,,,2,america,spain,,,,,,,,,,,"[""rshift"",""rshift""]","[1.7502000000029057,3.2007000000029393]",0,34,34,29,1,
070,001,2023-09-22_13h39.35.259,exp_g1,2022.2.5,MacIntel,60.0024001,,,,,,,161,l2,t,es,f0c,audio/161.wav,,l2_t_es_f0c_161,,,,,,,image/america.png,image/spain.png,,,,,,,,,,,,,,,,,2,america,spain,,,,,,,,,,,"[""lshift"",""rshift""]","[2.3746000000015783,2.8007000000030757]",0,35,35,45,1,1
070,001,2023-09-22_13h39.35.259,exp_g1,2022.2.5,MacIntel,60.0024001,,,,,,,097,l2,f,en,na,audio/097.wav,,l2_f_en_na_097,,,,,,,image/america.png,image/spain.png,,,,,,,,,,,,,,,,,2,america,spain,,,,,,,,,,,"[""lshift"",""lshift""]","[1.634700000003022,2.84889999999848]",0,36,36,1,1,
070,001,2023-09-22_13h39.35.259,exp_g1,2022.2.5,MacIntel,60.0024001,,,,,,,126,l2,f,sp,na,audio/126.wav,,l2_f_sp_na_126,,,,,,,image/america.png,image/spain.png,,,,,,,,,,,,,,,,,2,america,spain,,,,,,,,,,,"[""rshift"",""rshift""]","[1.4217999999970061,2.5988999999985936]",0,37,37,30,1,
070,001,2023-09-22_13h39.35.259,exp_g1,2022.2.5,MacIntel,60.0024001,,,,,,,105,l2,f,en,na,audio/105.wav,,l2_f_en_na_105,,,,,,,image/america.png,image/spain.png,,,,,,,,,,,,,,,,,2,america,spain,,,,,,,,,,,"[""lshift"",""lshift""]","[1.88439999999855,3.8506000000015774]",0,38,38,9,1,
070,001,2023-09-22_13h39.35.259,exp_g1,2022.2.5,MacIntel,60.0024001,,,,,,,169,l2,t,es,f0c,audio/169.wav,,l2_t_es_f0c_169,,,,,,,image/america.png,image/spain.png,,,,,,,,,,,,,,,,,2,america,spain,,,,,,,,,,,"[""lshift"",""rshift""]","[2.634100000001581,3.184300000004555]",0,39,39,53,1,1
070,001,2023-09-22_13h39.35.259,exp_g1,2022.2.5,MacIntel,60.0024001,,,,,,,099,l2,f,en,na,audio/099.wav,,l2_f_en_na_099,,,,,,,image/america.png,image/spain.png,,,,,,,,,,,,,,,,,2,america,spain,,,,,,,,,,,"[""lshift"",""lshift""]","[1.4065999999940004,3.3082999999969616]",0,40,40,3,1,
070,001,2023-09-22_13h39.35.259,exp_g1,2022.2.5,MacIntel,60.0024001,,,,,,,101,l2,f,en,na,audio/101.wav,,l2_f_en_na_101,,,,,,,image/america.png,image/spain.png,,,,,,,,,,,,,,,,,2,america,spain,,,,,,,,,,,"[""lshift"",""lshift""]","[1.6388999999985572,4.601100000001452]",0,41,41,5,1,
070,001,2023-09-22_13h39.35.259,exp_g1,2022.2.5,MacIntel,60.0024001,,,,,,,130,l2,f,sp,na,audio/130.wav,,l2_f_sp_na_130,,,,,,,image/america.png,image/spain.png,,,,,,,,,,,,,,,,,2,america,spain,,,,,,,,,,,"[""rshift"",""rshift""]","[1.552600000001462,3.2017000000030293]",0,42,42,34,1,
070,001,2023-09-22_13h39.35.259,exp_g1,2022.2.5,MacIntel,60.0024001,,,,,,,127,l2,f,sp,na,audio/127.wav,,l2_f_sp_na_127,,,,,,,image/america.png,image/spain.png,,,,,,,,,,,,,,,,,2,america,spain,,,,,,,,,,,"[""rshift"",""rshift""]","[2.1829999999999927,2.8168000000044913]",0,43,43,31,1,
070,001,2023-09-22_13h39.35.259,exp_g1,2022.2.5,MacIntel,60.0024001,,,,,,,109,l2,f,en,na,audio/109.wav,,l2_f_en_na_109,,,,,,,image/america.png,image/spain.png,,,,,,,,,,,,,,,,,2,america,spain,,,,,,,,,,,"[""rshift"",""lshift"",""lshift"",""lshift""]","[1.4177000000030375,1.8053000000045358,2.2326000000015256,3.0661000000014837]",0,44,44,13,1,
070,001,2023-09-22_13h39.35.259,exp_g1,2022.2.5,MacIntel,60.0024001,,,,,,,120,l2,f,se,na,audio/120.wav,,l2_f_se_na_120,,,,,,,image/america.png,image/spain.png,,,,,,,,,,,,,,,,,2,america,spain,,,,,,,,,,,"[""rshift"",""lshift""]","[1.8017000000029384,3.3218000000044867]",0,45,45,24,1,1
070,001,2023-09-22_13h39.35.259,exp_g1,2022.2.5,MacIntel,60.0024001,,,,,,,112,l2,f,se,na,audio/112.wav,,l2_f_se_na_112,,,,,,,image/america.png,image/spain.png,,,,,,,,,,,,,,,,,2,america,spain,,,,,,,,,,,"[""rshift"",""lshift""]","[1.5668999999985544,2.149000000000001]",0,46,46,16,1,1
070,001,2023-09-22_13h39.35.259,exp_g1,2022.2.5,MacIntel,60.0024001,,,,,,,170,l2,t,es,f0c,audio/170.wav,,l2_t_es_f0c_170,,,,,,,image/america.png,image/spain.png,,,,,,,,,,,,,,,,,2,america,spain,,,,,,,,,,,"[""lshift"",""rshift""]","[1.467999999999961,2.014900000005923]",0,47,47,54,1,1
070,001,2023-09-22_13h39.35.259,exp_g1,2022.2.5,MacIntel,60.0024001,,,,,,,121,l2,f,sp,na,audio/121.wav,,l2_f_sp_na_121,,,,,,,image/america.png,image/spain.png,,,,,,,,,,,,,,,,,2,america,spain,,,,,,,,,,,"[""rshift"",""rshift""]","[1.2200000000000273,2.2028000000044585]",0,48,48,25,1,
070,001,2023-09-22_13h39.35.259,exp_g1,2022.2.5,MacIntel,60.0024001,,,,,,,026,l2,t,es,na,audio/026.wav,,l2_t_es_na_026,,,,,,,image/america.png,image/spain.png,,,,,,,,,,,,,,,,,2,america,spain,,,,,,,,,,,"[""lshift"",""rshift""]","[1.8215000000000146,2.316600000001472]",0,49,49,40,1,1
070,001,2023-09-22_13h39.35.259,exp_g1,2022.2.5,MacIntel,60.0024001,,,,,,,129,l2,f,sp,na,audio/129.wav,,l2_f_sp_na_129,,,,,,,image/america.png,image/spain.png,,,,,,,,,,,,,,,,,2,america,spain,,,,,,,,,,,"[""rshift"",""rshift""]","[1.5888000000045395,3.2366000000015447]",0,50,50,33,1,
070,001,2023-09-22_13h39.35.259,exp_g1,2022.2.5,MacIntel,60.0024001,,,,,,,107,l2,f,en,na,audio/107.wav,,l2_f_en_na_107,,,,,,,image/america.png,image/spain.png,,,,,,,,,,,,,,,,,2,america,spain,,,,,,,,,,,"[""lshift"",""lshift""]","[1.9346000000015238,2.7224000000060187]",0,51,51,11,1,
070,001,2023-09-22_13h39.35.259,exp_g1,2022.2.5,MacIntel,60.0024001,,,,,,,030,l2,t,es,na,audio/030.wav,,l2_t_es_na_030,,,,,,,image/america.png,image/spain.png,,,,,,,,,,,,,,,,,2,america,spain,,,,,,,,,,,"[""lshift"",""rshift""]","[2.9003999999985126,3.106200000003014]",0,52,52,44,1,1
070,001,2023-09-22_13h39.35.259,exp_g1,2022.2.5,MacIntel,60.0024001,,,,,,,115,l2,f,se,na,audio/115.wav,,l2_f_se_na_115,,,,,,,image/america.png,image/spain.png,,,,,,,,,,,,,,,,,2,america,spain,,,,,,,,,,,"[""rshift"",""lshift""]","[1.4676000000015392,2.3171999999955233]",0,53,53,19,1,1
070,001,2023-09-22_13h39.35.259,exp_g1,2022.2.5,MacIntel,60.0024001,,,,,,,113,l2,f,se,na,audio/113.wav,,l2_f_se_na_113,,,,,,,image/america.png,image/spain.png,,,,,,,,,,,,,,,,,2,america,spain,,,,,,,,,,,"[""rshift"",""lshift""]","[1.5007999999970707,2.2725000000000364]",0,54,54,17,1,1
070,001,2023-09-22_13h39.35.259,exp_g1,2022.2.5,MacIntel,60.0024001,,,,,,,,,,,,,,,,,,,,,,,,,,,,,,,,,,,,,,,,,,,,,,,,,,,,,,,,,,,
