participant,session,date,expName,psychopyVersion,OS,frameRate,exp1_trial_key.keys,exp1_trial_loop.thisRepN,exp1_trial_loop.thisTrialN,exp1_trial_loop.thisN,exp1_trial_loop.thisIndex,exp1_trial_loop.ran,num,list,cond,lang,type,sound_dir,phr,sent_code,mat,mat_num,emb_num,emb,cut,mat_f0_c,left,right,correct_img,correct_key,exp1_key.keys,exp1_key.corr,exp1_key.rt,exp1_loop.thisRepN,exp1_loop.thisTrialN,exp1_loop.thisN,exp1_loop.thisIndex,exp1_loop.ran,exp_num,image,image_alt,left_img,right_img,image_dir,exp2_trial_key.keys,exp2_trial_key.rt,exp2_trial_loop.thisRepN,exp2_trial_loop.thisTrialN,exp2_trial_loop.thisN,exp2_trial_loop.thisIndex,exp2_trial_loop.ran,exp2_key.keys,exp2_key.rt,exp2_loop.thisRepN,exp2_loop.thisTrialN,exp2_loop.thisN,exp2_loop.thisIndex,exp2_loop.ran,cs
074,001,2023-10-06_10h15.54.848,exp_g2,2022.2.5,MacIntel,60.0024001,,,,,,,,,,,,,,,,,,,,,,,,,,,,,,,,,,,,,,,,,,,,,,,,,,,,,
074,001,2023-10-06_10h15.54.848,exp_g2,2022.2.5,MacIntel,60.0024001,,0,0,0,0,1,tr1,lt,tr,en,na,practice_trial/audio/tr1.wav,Where are your kids?,lt_tr_en_na_tr1,-,-,-,-,-,-,image/kids.png,image/plates.png,kids,lshift,,,,,,,,,,,,,,,,,,,,,,,,,,,,,
074,001,2023-10-06_10h15.54.848,exp_g2,2022.2.5,MacIntel,60.0024001,,0,1,1,1,1,tr2,lt,tr,en,na,practice_trial/audio/tr2.wav,Who is buying my car?,lt_tr_en_na_tr2,-,-,-,-,-,-,image/bag.png,image/car.png,car,rshift,,,,,,,,,,,,,,,,,,,,,,,,,,,,,
074,001,2023-10-06_10h15.54.848,exp_g2,2022.2.5,MacIntel,60.0024001,,0,2,2,2,1,tr3,lt,tr,sp,na,practice_trial/audio/tr3.wav,¿Dónde está mi perro?,lt_tr_sp_na_tr3,-,-,-,-,-,-,image/dog.png,image/grandma.png,dog,lshift,,,,,,,,,,,,,,,,,,,,,,,,,,,,,
074,001,2023-10-06_10h15.54.848,exp_g2,2022.2.5,MacIntel,60.0024001,,0,3,3,3,1,tr4,lt,tr,sp,na,practice_trial/audio/tr4.wav,¿De quién es la bolsa?,lt_tr_sp_na_tr4,-,-,-,-,-,-,image/shirt.png,image/bag.png,bag,rshift,,,,,,,,,,,,,,,,,,,,,,,,,,,,,
074,001,2023-10-06_10h15.54.848,exp_g2,2022.2.5,MacIntel,60.0024001,,0,4,4,4,1,tr5,lt,tr,se,na,practice_trial/audio/tr5.wav,¿Dónde encontraste sus donuts?,lt_tr_se_na_tr5,-,-,-,-,-,-,image/donut.png,image/cups.png,donut,lshift,,,,,,,,,,,,,,,,,,,,,,,,,,,,,
074,001,2023-10-06_10h15.54.848,exp_g2,2022.2.5,MacIntel,60.0024001,,0,5,5,5,1,tr6,lt,tr,se,na,practice_trial/audio/tr6.wav,¿Cuándo compraste tu sweater?,lt_tr_se_na_tr6,-,-,-,-,-,-,image/chair.png,image/sweater.png,sweater,rshift,,,,,,,,,,,,,,,,,,,,,,,,,,,,,
074,001,2023-10-06_10h15.54.848,exp_g2,2022.2.5,MacIntel,60.0024001,,0,6,6,6,1,tr7,lt,tr,es,na,practice_trial/audio/tr7.wav,Why do you have my camisa?,lt_tr_es_na_tr7,-,-,-,-,-,-,image/shirt.png,image/wallet.png,shirt,lshift,,,,,,,,,,,,,,,,,,,,,,,,,,,,,
074,001,2023-10-06_10h15.54.848,exp_g2,2022.2.5,MacIntel,60.0024001,,0,7,7,7,1,tr8,lt,tr,es,na,practice_trial/audio/tr8.wav,Where did you find his chanclas?,lt_tr_es_na_tr8,-,-,-,-,-,-,image/key.png,image/flipflops.png,flipflops,rshift,,,,,,,,,,,,,,,,,,,,,,,,,,,,,
074,001,2023-10-06_10h15.54.848,exp_g2,2022.2.5,MacIntel,60.0024001,,,,,,,,,,,,,,,,,,,,,,,,,,,,,,,,,,,,,,,,,,,,,,,,,,,,,
074,001,2023-10-06_10h15.54.848,exp_g2,2022.2.5,MacIntel,60.0024001,,,,,,,130,l2,f,sp,na,audio/130.wav,,l2_f_sp_na_130,,,,,,,image/socks.png,image/glasses.png,glasses,rshift,rshift,1,2.191,0,0,0,34,1,1,glasses,socks,socks,glasses,,,,,,,,,,,,,,,,
074,001,2023-10-06_10h15.54.848,exp_g2,2022.2.5,MacIntel,60.0024001,,,,,,,023,l2,t,es,na,audio/023.wav,,l2_t_es_na_023,,,,,,,image/wine.png,image/cellphone.png,wine,lshift,lshift,1,2.3006,0,1,1,37,1,1,wine,cellphone,wine,cellphone,,,,,,,,,,,,,,,,
074,001,2023-10-06_10h15.54.848,exp_g2,2022.2.5,MacIntel,60.0024001,,,,,,,121,l2,f,sp,na,audio/121.wav,,l2_f_sp_na_121,,,,,,,image/shoe.png,image/glasses.png,shoe,lshift,lshift,1,2.3064,0,2,2,25,1,1,shoe,glasses,shoe,glasses,,,,,,,,,,,,,,,,
074,001,2023-10-06_10h15.54.848,exp_g2,2022.2.5,MacIntel,60.0024001,,,,,,,122,l2,f,sp,na,audio/122.wav,,l2_f_sp_na_122,,,,,,,image/desk.png,image/chair.png,chair,rshift,rshift,1,2.4592,0,3,3,26,1,1,chair,desk,desk,chair,,,,,,,,,,,,,,,,
074,001,2023-10-06_10h15.54.848,exp_g2,2022.2.5,MacIntel,60.0024001,,,,,,,129,l2,f,sp,na,audio/129.wav,,l2_f_sp_na_129,,,,,,,image/bag.png,image/chair.png,bag,lshift,lshift,1,3.0727,0,4,4,33,1,1,bag,chair,bag,chair,,,,,,,,,,,,,,,,
074,001,2023-10-06_10h15.54.848,exp_g2,2022.2.5,MacIntel,60.0024001,,,,,,,021,l2,t,es,na,audio/021.wav,,l2_t_es_na_021,,,,,,,image/jacket.png,image/flipflops.png,jacket,lshift,lshift,1,2.4088,0,5,5,35,1,1,jacket,flipflops,jacket,flipflops,,,,,,,,,,,,,,,,
074,001,2023-10-06_10h15.54.848,exp_g2,2022.2.5,MacIntel,60.0024001,,,,,,,124,l2,f,sp,na,audio/124.wav,,l2_f_sp_na_124,,,,,,,image/bag.png,image/bed.png,bed,rshift,rshift,1,2.1953,0,6,6,28,1,1,bed,bag,bag,bed,,,,,,,,,,,,,,,,
074,001,2023-10-06_10h15.54.848,exp_g2,2022.2.5,MacIntel,60.0024001,,,,,,,149,l2,t,es,f0u,audio/149.wav,,l2_t_es_f0u_149,,,,,,,image/boy.png,image/dog.png,boy,lshift,lshift,1,3.0923,0,7,7,53,1,1,boy,dog,boy,dog,,,,,,,,,,,,,,,,
074,001,2023-10-06_10h15.54.848,exp_g2,2022.2.5,MacIntel,60.0024001,,,,,,,027,l2,t,es,na,audio/027.wav,,l2_t_es_na_027,,,,,,,image/shirt.png,image/book.png,shirt,lshift,lshift,1,2.2929,0,8,8,41,1,1,shirt,book,shirt,book,,,,,,,,,,,,,,,,
074,001,2023-10-06_10h15.54.848,exp_g2,2022.2.5,MacIntel,60.0024001,,,,,,,099,l2,f,en,na,audio/099.wav,,l2_f_en_na_099,,,,,,,image/dog.png,image/cat.png,dog,lshift,lshift,1,1.8734,0,9,9,3,1,1,dog,cat,dog,cat,,,,,,,,,,,,,,,,
074,001,2023-10-06_10h15.54.848,exp_g2,2022.2.5,MacIntel,60.0024001,,,,,,,127,l2,f,sp,na,audio/127.wav,,l2_f_sp_na_127,,,,,,,image/cat.png,image/dog.png,cat,lshift,lshift,1,2.0979,0,10,10,31,1,1,cat,dog,cat,dog,,,,,,,,,,,,,,,,
074,001,2023-10-06_10h15.54.848,exp_g2,2022.2.5,MacIntel,60.0024001,,,,,,,142,l2,t,es,f0u,audio/142.wav,,l2_t_es_f0u_142,,,,,,,image/car.png,image/truck.png,truck,rshift,lshift,0,3.3662,0,11,11,46,1,1,truck,car,car,truck,,,,,,,,,,,,,,,,
074,001,2023-10-06_10h15.54.848,exp_g2,2022.2.5,MacIntel,60.0024001,,,,,,,119,l2,f,se,na,audio/119.wav,,l2_f_se_na_119,,,,,,,image/penthouse.png,image/rocket.png,penthouse,lshift,lshift,1,2.9242,0,12,12,23,1,1,penthouse,rocket,penthouse,rocket,,,,,,,,,,,,,,,,
074,001,2023-10-06_10h15.54.848,exp_g2,2022.2.5,MacIntel,60.0024001,,,,,,,141,l2,t,es,f0u,audio/141.wav,,l2_t_es_f0u_141,,,,,,,image/dog.png,image/backpack.png,dog,lshift,lshift,1,2.4061,0,13,13,45,1,1,dog,backpack,dog,backpack,,,,,,,,,,,,,,,,
074,001,2023-10-06_10h15.54.848,exp_g2,2022.2.5,MacIntel,60.0024001,,,,,,,101,l2,f,en,na,audio/101.wav,,l2_f_en_na_101,,,,,,,image/computer.png,image/bag.png,computer,lshift,lshift,1,2.6493,0,14,14,5,1,1,computer,bag,computer,bag,,,,,,,,,,,,,,,,
074,001,2023-10-06_10h15.54.848,exp_g2,2022.2.5,MacIntel,60.0024001,,,,,,,126,l2,f,sp,na,audio/126.wav,,l2_f_sp_na_126,,,,,,,image/backpack.png,image/key.png,key,rshift,rshift,1,1.9456,0,15,15,30,1,1,key,backpack,backpack,key,,,,,,,,,,,,,,,,
074,001,2023-10-06_10h15.54.848,exp_g2,2022.2.5,MacIntel,60.0024001,,,,,,,098,l2,f,en,na,audio/098.wav,,l2_f_en_na_098,,,,,,,image/man.png,image/woman.png,woman,rshift,rshift,1,2.1739,0,16,16,2,1,1,woman,man,man,woman,,,,,,,,,,,,,,,,
074,001,2023-10-06_10h15.54.848,exp_g2,2022.2.5,MacIntel,60.0024001,,,,,,,128,l2,f,sp,na,audio/128.wav,,l2_f_sp_na_128,,,,,,,image/cups.png,image/kids.png,kids,rshift,rshift,1,2.0437,0,17,17,32,1,1,kids,cups,cups,kids,,,,,,,,,,,,,,,,
074,001,2023-10-06_10h15.54.848,exp_g2,2022.2.5,MacIntel,60.0024001,,,,,,,111,l2,f,se,na,audio/111.wav,,l2_f_se_na_111,,,,,,,image/mashedpotatoes.png,image/donut.png,mashedpotatoes,lshift,lshift,1,2.4222,0,18,18,15,1,1,mashedpotatoes,donut,mashedpotatoes,donut,,,,,,,,,,,,,,,,
074,001,2023-10-06_10h15.54.848,exp_g2,2022.2.5,MacIntel,60.0024001,,,,,,,107,l2,f,en,na,audio/107.wav,,l2_f_en_na_107,,,,,,,image/man.png,image/cat.png,man,lshift,lshift,1,2.2448,0,19,19,11,1,1,man,cat,man,cat,,,,,,,,,,,,,,,,
074,001,2023-10-06_10h15.54.848,exp_g2,2022.2.5,MacIntel,60.0024001,,,,,,,144,l2,t,es,f0u,audio/144.wav,,l2_t_es_f0u_144,,,,,,,image/bracelet.png,image/backpack.png,backpack,rshift,rshift,1,2.3287,0,20,20,48,1,1,backpack,bracelet,bracelet,backpack,,,,,,,,,,,,,,,,
074,001,2023-10-06_10h15.54.848,exp_g2,2022.2.5,MacIntel,60.0024001,,,,,,,108,l2,f,en,na,audio/108.wav,,l2_f_en_na_108,,,,,,,image/scarf.png,image/socks.png,socks,rshift,rshift,1,2.8856,0,21,21,12,1,1,socks,scarf,scarf,socks,,,,,,,,,,,,,,,,
074,001,2023-10-06_10h15.54.848,exp_g2,2022.2.5,MacIntel,60.0024001,,,,,,,026,l2,t,es,na,audio/026.wav,,l2_t_es_na_026,,,,,,,image/village.png,image/grandma.png,grandma,rshift,rshift,1,2.3899,0,22,22,40,1,1,grandma,village,village,grandma,,,,,,,,,,,,,,,,
074,001,2023-10-06_10h15.54.848,exp_g2,2022.2.5,MacIntel,60.0024001,,,,,,,112,l2,f,se,na,audio/112.wav,,l2_f_se_na_112,,,,,,,image/burger.png,image/hotdog.png,hotdog,rshift,rshift,1,2.2386,0,23,23,16,1,1,hotdog,burger,burger,hotdog,,,,,,,,,,,,,,,,
074,001,2023-10-06_10h15.54.848,exp_g2,2022.2.5,MacIntel,60.0024001,,,,,,,104,l2,f,en,na,audio/104.wav,,l2_f_en_na_104,,,,,,,image/shirt.png,image/bag.png,bag,rshift,rshift,1,1.8704,0,24,24,8,1,1,bag,shirt,shirt,bag,,,,,,,,,,,,,,,,
074,001,2023-10-06_10h15.54.848,exp_g2,2022.2.5,MacIntel,60.0024001,,,,,,,110,l2,f,en,na,audio/110.wav,,l2_f_en_na_110,,,,,,,image/dog.png,image/cat.png,cat,rshift,rshift,1,2.4524,0,25,25,14,1,1,cat,dog,dog,cat,,,,,,,,,,,,,,,,
074,001,2023-10-06_10h15.54.848,exp_g2,2022.2.5,MacIntel,60.0024001,,,,,,,030,l2,t,es,na,audio/030.wav,,l2_t_es_na_030,,,,,,,image/flipflops.png,image/boy.png,boy,rshift,rshift,1,2.6584,0,26,26,44,1,1,boy,flipflops,flipflops,boy,,,,,,,,,,,,,,,,
074,001,2023-10-06_10h15.54.848,exp_g2,2022.2.5,MacIntel,60.0024001,,,,,,,115,l2,f,se,na,audio/115.wav,,l2_f_se_na_115,,,,,,,image/notebook.png,image/cellphone.png,notebook,lshift,lshift,1,2.4556,0,27,27,19,1,1,notebook,cellphone,notebook,cellphone,,,,,,,,,,,,,,,,
074,001,2023-10-06_10h15.54.848,exp_g2,2022.2.5,MacIntel,60.0024001,,,,,,,117,l2,f,se,na,audio/117.wav,,l2_f_se_na_117,,,,,,,image/spongebob.png,image/mickeymouse.png,spongebob,lshift,lshift,1,2.3315,0,28,28,21,1,1,spongebob,mickeymouse,spongebob,mickeymouse,,,,,,,,,,,,,,,,
074,001,2023-10-06_10h15.54.848,exp_g2,2022.2.5,MacIntel,60.0024001,,,,,,,100,l2,f,en,na,audio/100.wav,,l2_f_en_na_100,,,,,,,image/wallet.png,image/scarf.png,scarf,rshift,rshift,1,1.7721,0,29,29,4,1,1,scarf,wallet,wallet,scarf,,,,,,,,,,,,,,,,
074,001,2023-10-06_10h15.54.848,exp_g2,2022.2.5,MacIntel,60.0024001,,,,,,,113,l2,f,se,na,audio/113.wav,,l2_f_se_na_113,,,,,,,image/loafers.png,image/sneakers.png,loafers,lshift,lshift,1,2.2508,0,30,30,17,1,1,loafers,sneakers,loafers,sneakers,,,,,,,,,,,,,,,,
074,001,2023-10-06_10h15.54.848,exp_g2,2022.2.5,MacIntel,60.0024001,,,,,,,143,l2,t,es,f0u,audio/143.wav,,l2_t_es_f0u_143,,,,,,,image/horchata.png,image/beer.png,horchata,lshift,lshift,1,3.2898,0,31,31,47,1,1,horchata,beer,horchata,beer,,,,,,,,,,,,,,,,
074,001,2023-10-06_10h15.54.848,exp_g2,2022.2.5,MacIntel,60.0024001,,,,,,,096,l2,f,en,na,audio/096.wav,,l2_f_en_na_096,,,,,,,image/woman.png,image/cat.png,cat,rshift,rshift,1,2.027,0,32,32,0,1,1,cat,woman,woman,cat,image/,,,,,,,,,,,,,,,
074,001,2023-10-06_10h15.54.848,exp_g2,2022.2.5,MacIntel,60.0024001,,,,,,,105,l2,f,en,na,audio/105.wav,,l2_f_en_na_105,,,,,,,image/bed.png,image/plane.png,bed,lshift,lshift,1,2.9076,0,33,33,9,1,1,bed,plane,bed,plane,,,,,,,,,,,,,,,,
074,001,2023-10-06_10h15.54.848,exp_g2,2022.2.5,MacIntel,60.0024001,,,,,,,114,l2,f,se,na,audio/114.wav,,l2_f_se_na_114,,,,,,,image/jeans.png,image/sweatpants.png,sweatpants,rshift,lshift,0,2.3488,0,34,34,18,1,1,sweatpants,jeans,jeans,sweatpants,,,,,,,,,,,,,,,,
074,001,2023-10-06_10h15.54.848,exp_g2,2022.2.5,MacIntel,60.0024001,,,,,,,106,l2,f,en,na,audio/106.wav,,l2_f_en_na_106,,,,,,,image/wallet.png,image/computer.png,computer,rshift,rshift,1,2.6091,0,35,35,10,1,1,computer,wallet,wallet,computer,,,,,,,,,,,,,,,,
074,001,2023-10-06_10h15.54.848,exp_g2,2022.2.5,MacIntel,60.0024001,,,,,,,123,l2,f,sp,na,audio/123.wav,,l2_f_sp_na_123,,,,,,,image/sweater.png,image/cellphone.png,sweater,lshift,lshift,1,2.1408,0,36,36,27,1,1,sweater,cellphone,sweater,cellphone,,,,,,,,,,,,,,,,
074,001,2023-10-06_10h15.54.848,exp_g2,2022.2.5,MacIntel,60.0024001,,,,,,,147,l2,t,es,f0u,audio/147.wav,,l2_t_es_f0u_147,,,,,,,image/truck.png,image/book.png,truck,lshift,lshift,1,2.8917,0,37,37,51,1,1,truck,book,truck,book,,,,,,,,,,,,,,,,
074,001,2023-10-06_10h15.54.848,exp_g2,2022.2.5,MacIntel,60.0024001,,,,,,,097,l2,f,en,na,audio/097.wav,,l2_f_en_na_097,,,,,,,image/ring.png,image/belt.png,ring,lshift,lshift,1,2.2313,0,38,38,1,1,1,ring,belt,ring,belt,,,,,,,,,,,,,,,,
074,001,2023-10-06_10h15.54.848,exp_g2,2022.2.5,MacIntel,60.0024001,,,,,,,148,l2,t,es,f0u,audio/148.wav,,l2_t_es_f0u_148,,,,,,,image/newspaper.png,image/cups.png,cups,rshift,rshift,1,2.7669,0,39,39,52,1,1,cups,newspaper,newspaper,cups,,,,,,,,,,,,,,,,
074,001,2023-10-06_10h15.54.848,exp_g2,2022.2.5,MacIntel,60.0024001,,,,,,,150,l2,t,es,f0u,audio/150.wav,,l2_t_es_f0u_150,,,,,,,image/cat.png,image/key.png,key,rshift,rshift,1,2.5511,0,40,40,54,1,1,key,cat,cat,key,,,,,,,,,,,,,,,,
074,001,2023-10-06_10h15.54.848,exp_g2,2022.2.5,MacIntel,60.0024001,,,,,,,028,l2,t,es,na,audio/028.wav,,l2_t_es_na_028,,,,,,,image/pants.png,image/glasses.png,glasses,rshift,rshift,1,2.4244,0,41,41,42,1,1,glasses,pants,pants,glasses,,,,,,,,,,,,,,,,
074,001,2023-10-06_10h15.54.848,exp_g2,2022.2.5,MacIntel,60.0024001,,,,,,,118,l2,f,se,na,audio/118.wav,,l2_f_se_na_118,,,,,,,image/icecream.png,image/donut.png,donut,rshift,rshift,1,2.033,0,42,42,22,1,1,donut,icecream,icecream,donut,,,,,,,,,,,,,,,,
074,001,2023-10-06_10h15.54.848,exp_g2,2022.2.5,MacIntel,60.0024001,,,,,,,116,l2,f,se,na,audio/116.wav,,l2_f_se_na_116,,,,,,,image/sweatpants.png,image/boxers.png,boxers,rshift,rshift,1,2.3072,0,43,43,20,1,1,boxers,sweatpants,sweatpants,boxers,,,,,,,,,,,,,,,,
074,001,2023-10-06_10h15.54.848,exp_g2,2022.2.5,MacIntel,60.0024001,,,,,,,145,l2,t,es,f0u,audio/145.wav,,l2_t_es_f0u_145,,,,,,,image/bag.png,image/flower.png,bag,lshift,lshift,1,2.479,0,44,44,49,1,1,bag,flower,bag,flower,,,,,,,,,,,,,,,,
074,001,2023-10-06_10h15.54.848,exp_g2,2022.2.5,MacIntel,60.0024001,,,,,,,102,l2,f,en,na,audio/102.wav,,l2_f_en_na_102,,,,,,,image/socks.png,image/book.png,books,rshift,rshift,1,2.4293,0,45,45,6,1,1,books,socks,socks,book,,,,,,,,,,,,,,,,
074,001,2023-10-06_10h15.54.848,exp_g2,2022.2.5,MacIntel,60.0024001,,,,,,,120,l2,f,se,na,audio/120.wav,,l2_f_se_na_120,,,,,,,image/glasses.png,image/joycons.png,joycons,rshift,rshift,1,2.6527,0,46,46,24,1,1,joycons,glasses,glasses,joycons,,,,,,,,,,,,,,,,
074,001,2023-10-06_10h15.54.848,exp_g2,2022.2.5,MacIntel,60.0024001,,,,,,,024,l2,t,es,na,audio/024.wav,,l2_t_es_na_024,,,,,,,image/bed.png,image/jug.png,jug,rshift,rshift,1,2.6107,0,47,47,38,1,1,jug,bed,bed,jug,,,,,,,,,,,,,,,,
074,001,2023-10-06_10h15.54.848,exp_g2,2022.2.5,MacIntel,60.0024001,,,,,,,029,l2,t,es,na,audio/029.wav,,l2_t_es_na_029,,,,,,,image/armchair.png,image/ring.png,armchair,lshift,lshift,1,3.1397,0,48,48,43,1,1,armchair,ring,armchair,ring,,,,,,,,,,,,,,,,
074,001,2023-10-06_10h15.54.848,exp_g2,2022.2.5,MacIntel,60.0024001,,,,,,,125,l2,f,sp,na,audio/125.wav,,l2_f_sp_na_125,,,,,,,image/desk.png,image/bottle.png,desk,lshift,lshift,1,2.8243,0,49,49,29,1,1,desk,bottle,desk,bottle,,,,,,,,,,,,,,,,
074,001,2023-10-06_10h15.54.848,exp_g2,2022.2.5,MacIntel,60.0024001,,,,,,,022,l2,t,es,na,audio/022.wav,,l2_t_es_na_022,,,,,,,image/dog.png,image/cat.png,cat,rshift,rshift,1,2.3492,0,50,50,36,1,1,cat,dog,dog,cat,,,,,,,,,,,,,,,,
074,001,2023-10-06_10h15.54.848,exp_g2,2022.2.5,MacIntel,60.0024001,,,,,,,109,l2,f,en,na,audio/109.wav,,l2_f_en_na_109,,,,,,,image/fish.png,image/woman.png,fish,lshift,lshift,1,1.8963,0,51,51,13,1,1,fish,woman,fish,woman,,,,,,,,,,,,,,,,
074,001,2023-10-06_10h15.54.848,exp_g2,2022.2.5,MacIntel,60.0024001,,,,,,,146,l2,t,es,f0u,audio/146.wav,,l2_t_es_f0u_146,,,,,,,image/cellphone.png,image/flipflops.png,flipflops,rshift,rshift,1,3.0807,0,52,52,50,1,1,flipflops,cellphone,cellphone,flipflops,,,,,,,,,,,,,,,,
074,001,2023-10-06_10h15.54.848,exp_g2,2022.2.5,MacIntel,60.0024001,,,,,,,025,l2,t,es,na,audio/025.wav,,l2_t_es_na_025,,,,,,,image/cellphone.png,image/truck.png,cellphone,lshift,lshift,1,2.5492,0,53,53,39,1,1,cellphone,truck,cellphone,truck,,,,,,,,,,,,,,,,
074,001,2023-10-06_10h15.54.848,exp_g2,2022.2.5,MacIntel,60.0024001,,,,,,,103,l2,f,en,na,audio/103.wav,,l2_f_en_na_103,,,,,,,image/toys.png,image/sneakers.png,toys,lshift,lshift,1,2.4066,0,54,54,7,1,1,toys,sneakers,toys,sneakers,,,,,,,,,,,,,,,,
074,001,2023-10-06_10h15.54.848,exp_g2,2022.2.5,MacIntel,60.0024001,,,,,,,,,,,,,,,,,,,,,,,,,,,,,,,,,,,,,,,,,,,,,,,,,,,,,
074,001,2023-10-06_10h15.54.848,exp_g2,2022.2.5,MacIntel,60.0024001,,,,,,,tr1,lt,tr,en,na,practice_trial/audio/tr1.wav,Where are your kids?,lt_tr_en_na_tr1,-,-,-,-,-,-,image/america.png,image/spain.png,,,,,,,,,,,,,,,,,"[""lshift""]",[1.861500000000035],0,0,0,0,1,,,,,,,,
074,001,2023-10-06_10h15.54.848,exp_g2,2022.2.5,MacIntel,60.0024001,,,,,,,tr2,lt,tr,en,na,practice_trial/audio/tr2.wav,Who is buying my car?,lt_tr_en_na_tr2,-,-,-,-,-,-,image/america.png,image/spain.png,,,,,,,,,,,,,,,,,"[""lshift""]",[2.1674999999999613],0,1,1,1,1,,,,,,,,
074,001,2023-10-06_10h15.54.848,exp_g2,2022.2.5,MacIntel,60.0024001,,,,,,,tr3,lt,tr,sp,na,practice_trial/audio/tr3.wav,¿Dónde está mi perro?,lt_tr_sp_na_tr3,-,-,-,-,-,-,image/america.png,image/spain.png,,,,,,,,,,,,,,,,,"[""rshift""]",[1.45719999998812],0,2,2,2,1,,,,,,,,
074,001,2023-10-06_10h15.54.848,exp_g2,2022.2.5,MacIntel,60.0024001,,,,,,,tr4,lt,tr,sp,na,practice_trial/audio/tr4.wav,¿De quién es la bolsa?,lt_tr_sp_na_tr4,-,-,-,-,-,-,image/america.png,image/spain.png,,,,,,,,,,,,,,,,,"[""rshift""]",[2.299899999991055],0,3,3,3,1,,,,,,,,
074,001,2023-10-06_10h15.54.848,exp_g2,2022.2.5,MacIntel,60.0024001,,,,,,,tr5,lt,tr,se,na,practice_trial/audio/tr5.wav,¿Dónde encontraste sus donuts?,lt_tr_se_na_tr5,-,-,-,-,-,-,image/america.png,image/spain.png,,,,,,,,,,,,,,,,,"[""rshift"",""lshift""]","[3.7069000000059305,3.923900000005972]",0,4,4,4,1,,,,,,,,
074,001,2023-10-06_10h15.54.848,exp_g2,2022.2.5,MacIntel,60.0024001,,,,,,,tr6,lt,tr,se,na,practice_trial/audio/tr6.wav,¿Cuándo compraste tu sweater?,lt_tr_se_na_tr6,-,-,-,-,-,-,image/america.png,image/spain.png,,,,,,,,,,,,,,,,,"[""rshift"",""lshift""]","[1.799799999996992,2.470599999994022]",0,5,5,5,1,,,,,,,,
074,001,2023-10-06_10h15.54.848,exp_g2,2022.2.5,MacIntel,60.0024001,,,,,,,tr7,lt,tr,es,na,practice_trial/audio/tr7.wav,Why do you have my camisa?,lt_tr_es_na_tr7,-,-,-,-,-,-,image/america.png,image/spain.png,,,,,,,,,,,,,,,,,"[""lshift"",""rshift""]","[1.9223999999910575,2.399399999991033]",0,6,6,6,1,,,,,,,,
074,001,2023-10-06_10h15.54.848,exp_g2,2022.2.5,MacIntel,60.0024001,,,,,,,tr8,lt,tr,es,na,practice_trial/audio/tr8.wav,Where did you find his chanclas?,lt_tr_es_na_tr8,-,-,-,-,-,-,image/america.png,image/spain.png,,,,,,,,,,,,,,,,,"[""lshift"",""rshift""]","[1.6025999999940836,2.142500000000041]",0,7,7,7,1,,,,,,,,
074,001,2023-10-06_10h15.54.848,exp_g2,2022.2.5,MacIntel,60.0024001,,,,,,,,,,,,,,,,,,,,,,,,,,,,,,,,,,,,,,,,,,,,,,,,,,,,,
074,001,2023-10-06_10h15.54.848,exp_g2,2022.2.5,MacIntel,60.0024001,,,,,,,077,l1,f,se,na,audio/077.wav,,l1_f_se_na_077,,,,,,,image/america.png,image/spain.png,,,,,,,,,,,2,america,spain,,,,,,,,,,,"[""rshift"",""lshift""]","[1.170900000005986,1.899100000008957]",0,0,0,16,1,1
074,001,2023-10-06_10h15.54.848,exp_g2,2022.2.5,MacIntel,60.0024001,,,,,,,156,l1,t,es,f0c,audio/156.wav,,l1_t_es_f0c_156,,,,,,,image/america.png,image/spain.png,,,,,,,,,,,2,america,spain,,,,,,,,,,,"[""lshift"",""rshift""]","[1.4338999999910698,2.2665000000000077]",0,1,1,50,1,1
074,001,2023-10-06_10h15.54.848,exp_g2,2022.2.5,MacIntel,60.0024001,,,,,,,083,l1,f,se,na,audio/083.wav,,l1_f_se_na_083,,,,,,,image/america.png,image/spain.png,,,,,,,,,,,2,america,spain,,,,,,,,,,,"[""rshift"",""lshift""]","[1.4217000000029998,2.1182999999970207]",0,2,2,22,1,1
074,001,2023-10-06_10h15.54.848,exp_g2,2022.2.5,MacIntel,60.0024001,,,,,,,076,l1,f,se,na,audio/076.wav,,l1_f_se_na_076,,,,,,,image/america.png,image/spain.png,,,,,,,,,,,2,america,spain,,,,,,,,,,,"[""rshift"",""lshift""]","[1.317300000011926,1.8845000000000027]",0,3,3,15,1,1
074,001,2023-10-06_10h15.54.848,exp_g2,2022.2.5,MacIntel,60.0024001,,,,,,,020,l1,t,es,na,audio/020.wav,,l1_t_es_na_020,,,,,,,image/america.png,image/spain.png,,,,,,,,,,,2,america,spain,,,,,,,,,,,"[""lshift"",""rshift""]","[1.232500000000016,2.3652999999970348]",0,4,4,44,1,1
074,001,2023-10-06_10h15.54.848,exp_g2,2022.2.5,MacIntel,60.0024001,,,,,,,016,l1,t,es,na,audio/016.wav,,l1_t_es_na_016,,,,,,,image/america.png,image/spain.png,,,,,,,,,,,2,america,spain,,,,,,,,,,,"[""lshift"",""rshift""]","[1.3347000000030107,3.0032999999970684]",0,5,5,40,1,1
074,001,2023-10-06_10h15.54.848,exp_g2,2022.2.5,MacIntel,60.0024001,,,,,,,157,l1,t,es,f0c,audio/157.wav,,l1_t_es_f0c_157,,,,,,,image/america.png,image/spain.png,,,,,,,,,,,2,america,spain,,,,,,,,,,,"[""lshift"",""rshift""]","[1.452800000011905,1.9849999999999568]",0,6,6,51,1,1
074,001,2023-10-06_10h15.54.848,exp_g2,2022.2.5,MacIntel,60.0024001,,,,,,,066,l1,f,en,na,audio/066.wav,,l1_f_en_na_066,,,,,,,image/america.png,image/spain.png,,,,,,,,,,,2,america,spain,,,,,,,,,,,"[""lshift""]",[1.384999999999991],0,7,7,5,1,
074,001,2023-10-06_10h15.54.848,exp_g2,2022.2.5,MacIntel,60.0024001,,,,,,,151,l1,t,es,f0c,audio/151.wav,,l1_t_es_f0c_151,,,,,,,image/america.png,image/spain.png,,,,,,,,,,,2,america,spain,,,,,,,,,,,"[""lshift"",""rshift""]","[1.4172000000029925,2.052000000000021]",0,8,8,45,1,1
074,001,2023-10-06_10h15.54.848,exp_g2,2022.2.5,MacIntel,60.0024001,,,,,,,093,l1,f,sp,na,audio/093.wav,,l1_f_sp_na_093,,,,,,,image/america.png,image/spain.png,,,,,,,,,,,2,america,spain,,,,,,,,,,,"[""rshift""]",[1.1837999999970066],0,9,9,32,1,
074,001,2023-10-06_10h15.54.848,exp_g2,2022.2.5,MacIntel,60.0024001,,,,,,,153,l1,t,es,f0c,audio/153.wav,,l1_t_es_f0c_153,,,,,,,image/america.png,image/spain.png,,,,,,,,,,,2,america,spain,,,,,,,,,,,"[""lshift"",""rshift""]","[1.3005999999940627,2.170899999991093]",0,10,10,47,1,1
074,001,2023-10-06_10h15.54.848,exp_g2,2022.2.5,MacIntel,60.0024001,,,,,,,152,l1,t,es,f0c,audio/152.wav,,l1_t_es_f0c_152,,,,,,,image/america.png,image/spain.png,,,,,,,,,,,2,america,spain,,,,,,,,,,,"[""lshift"",""rshift""]","[1.2347999999970511,2.1168999999910625]",0,11,11,46,1,1
074,001,2023-10-06_10h15.54.848,exp_g2,2022.2.5,MacIntel,60.0024001,,,,,,,075,l1,f,en,na,audio/075.wav,,l1_f_en_na_075,,,,,,,image/america.png,image/spain.png,,,,,,,,,,,2,america,spain,,,,,,,,,,,"[""lshift""]",[1.2718999999910352],0,12,12,14,1,
074,001,2023-10-06_10h15.54.848,exp_g2,2022.2.5,MacIntel,60.0024001,,,,,,,089,l1,f,sp,na,audio/089.wav,,l1_f_sp_na_089,,,,,,,image/america.png,image/spain.png,,,,,,,,,,,2,america,spain,,,,,,,,,,,"[""rshift""]",[1.1722000000029311],0,13,13,28,1,
074,001,2023-10-06_10h15.54.848,exp_g2,2022.2.5,MacIntel,60.0024001,,,,,,,094,l1,f,sp,na,audio/094.wav,,l1_f_sp_na_094,,,,,,,image/america.png,image/spain.png,,,,,,,,,,,2,america,spain,,,,,,,,,,,"[""lshift"",""rshift""]","[1.2580999999939877,1.9204999999999472]",0,14,14,33,1,
074,001,2023-10-06_10h15.54.848,exp_g2,2022.2.5,MacIntel,60.0024001,,,,,,,068,l1,f,en,na,audio/068.wav,,l1_f_en_na_068,,,,,,,image/america.png,image/spain.png,,,,,,,,,,,2,america,spain,,,,,,,,,,,"[""lshift""]",[1.5333999999910475],0,15,15,7,1,
074,001,2023-10-06_10h15.54.848,exp_g2,2022.2.5,MacIntel,60.0024001,,,,,,,155,l1,t,es,f0c,audio/155.wav,,l1_t_es_f0c_155,,,,,,,image/america.png,image/spain.png,,,,,,,,,,,2,america,spain,,,,,,,,,,,"[""lshift"",""rshift""]","[1.4085999999940668,2.266999999999996]",0,16,16,49,1,1
074,001,2023-10-06_10h15.54.848,exp_g2,2022.2.5,MacIntel,60.0024001,,,,,,,078,l1,f,se,na,audio/078.wav,,l1_f_se_na_078,,,,,,,image/america.png,image/spain.png,,,,,,,,,,,2,america,spain,,,,,,,,,,,"[""rshift"",""lshift""]","[1.3502000000029852,1.966799999997022]",0,17,17,17,1,1
074,001,2023-10-06_10h15.54.848,exp_g2,2022.2.5,MacIntel,60.0024001,,,,,,,084,l1,f,se,na,audio/084.wav,,l1_f_se_na_084,,,,,,,image/america.png,image/spain.png,,,,,,,,,,,2,america,spain,,,,,,,,,,,"[""rshift"",""lshift""]","[1.2332999999970298,2.6163999999910175]",0,18,18,23,1,1
074,001,2023-10-06_10h15.54.848,exp_g2,2022.2.5,MacIntel,60.0024001,,,,,,,081,l1,f,se,na,audio/081.wav,,l1_f_se_na_081,,,,,,,image/america.png,image/spain.png,,,,,,,,,,,2,america,spain,,,,,,,,,,,"[""rshift"",""lshift""]","[1.2415999999940368,2.7527999999970234]",0,19,19,20,1,1
074,001,2023-10-06_10h15.54.848,exp_g2,2022.2.5,MacIntel,60.0024001,,,,,,,015,l1,t,es,na,audio/015.wav,,l1_t_es_na_015,,,,,,,image/america.png,image/spain.png,,,,,,,,,,,2,america,spain,,,,,,,,,,,"[""rshift"",""lshift"",""rshift""]","[1.2434999999999263,1.808499999999981,2.3576999999880854]",0,20,20,39,1,1
074,001,2023-10-06_10h15.54.848,exp_g2,2022.2.5,MacIntel,60.0024001,,,,,,,090,l1,f,sp,na,audio/090.wav,,l1_f_sp_na_090,,,,,,,image/america.png,image/spain.png,,,,,,,,,,,2,america,spain,,,,,,,,,,,"[""rshift""]",[1.4232999999970843],0,21,21,29,1,
074,001,2023-10-06_10h15.54.848,exp_g2,2022.2.5,MacIntel,60.0024001,,,,,,,012,l1,t,es,na,audio/012.wav,,l1_t_es_na_012,,,,,,,image/america.png,image/spain.png,,,,,,,,,,,2,america,spain,,,,,,,,,,,"[""lshift"",""rshift""]","[1.2339999999999236,2.3234999999999673]",0,22,22,36,1,1
074,001,2023-10-06_10h15.54.848,exp_g2,2022.2.5,MacIntel,60.0024001,,,,,,,092,l1,f,sp,na,audio/092.wav,,l1_f_sp_na_092,,,,,,,image/america.png,image/spain.png,,,,,,,,,,,2,america,spain,,,,,,,,,,,"[""rshift""]",[1.2846000000089361],0,23,23,31,1,
074,001,2023-10-06_10h15.54.848,exp_g2,2022.2.5,MacIntel,60.0024001,,,,,,,154,l1,t,es,f0c,audio/154.wav,,l1_t_es_f0c_154,,,,,,,image/america.png,image/spain.png,,,,,,,,,,,2,america,spain,,,,,,,,,,,"[""lshift"",""rshift""]","[1.2667999999970334,2.318099999994047]",0,24,24,48,1,1
074,001,2023-10-06_10h15.54.848,exp_g2,2022.2.5,MacIntel,60.0024001,,,,,,,013,l1,t,es,na,audio/013.wav,,l1_t_es_na_013,,,,,,,image/america.png,image/spain.png,,,,,,,,,,,2,america,spain,,,,,,,,,,,"[""lshift"",""rshift""]","[1.4071000000089953,2.5254999999999654]",0,25,25,37,1,1
074,001,2023-10-06_10h15.54.848,exp_g2,2022.2.5,MacIntel,60.0024001,,,,,,,088,l1,f,sp,na,audio/088.wav,,l1_f_sp_na_088,,,,,,,image/america.png,image/spain.png,,,,,,,,,,,2,america,spain,,,,,,,,,,,"[""rshift""]",[1.4517000000030293],0,26,26,27,1,
074,001,2023-10-06_10h15.54.848,exp_g2,2022.2.5,MacIntel,60.0024001,,,,,,,158,l1,t,es,f0c,audio/158.wav,,l1_t_es_f0c_158,,,,,,,image/america.png,image/spain.png,,,,,,,,,,,2,america,spain,,,,,,,,,,,"[""lshift"",""rshift""]","[1.2847999999969488,2.3173999999910393]",0,27,27,52,1,1
074,001,2023-10-06_10h15.54.848,exp_g2,2022.2.5,MacIntel,60.0024001,,,,,,,073,l1,f,en,na,audio/073.wav,,l1_f_en_na_073,,,,,,,image/america.png,image/spain.png,,,,,,,,,,,2,america,spain,,,,,,,,,,,"[""lshift""]",[1.3892000000030293],0,28,28,12,1,
074,001,2023-10-06_10h15.54.848,exp_g2,2022.2.5,MacIntel,60.0024001,,,,,,,071,l1,f,en,na,audio/071.wav,,l1_f_en_na_071,,,,,,,image/america.png,image/spain.png,,,,,,,,,,,2,america,spain,,,,,,,,,,,"[""lshift""]",[1.433099999994056],0,29,29,10,1,
074,001,2023-10-06_10h15.54.848,exp_g2,2022.2.5,MacIntel,60.0024001,,,,,,,064,l1,f,en,na,audio/064.wav,,l1_f_en_na_064,,,,,,,image/america.png,image/spain.png,,,,,,,,,,,2,america,spain,,,,,,,,,,,"[""lshift""]",[1.433199999988119],0,30,30,3,1,
074,001,2023-10-06_10h15.54.848,exp_g2,2022.2.5,MacIntel,60.0024001,,,,,,,086,l1,f,sp,na,audio/086.wav,,l1_f_sp_na_086,,,,,,,image/america.png,image/spain.png,,,,,,,,,,,2,america,spain,,,,,,,,,,,"[""rshift""]",[1.3690999999940914],0,31,31,25,1,
074,001,2023-10-06_10h15.54.848,exp_g2,2022.2.5,MacIntel,60.0024001,,,,,,,160,l1,t,es,f0c,audio/160.wav,,l1_t_es_f0c_160,,,,,,,image/america.png,image/spain.png,,,,,,,,,,,2,america,spain,,,,,,,,,,,"[""lshift"",""rshift""]","[1.3720999999940204,2.424799999997049]",0,32,32,54,1,1
074,001,2023-10-06_10h15.54.848,exp_g2,2022.2.5,MacIntel,60.0024001,,,,,,,079,l1,f,se,na,audio/079.wav,,l1_f_se_na_079,,,,,,,image/america.png,image/spain.png,,,,,,,,,,,2,america,spain,,,,,,,,,,,"[""lshift"",""rshift""]","[1.3339000000058832,1.7521000000089089]",0,33,33,18,1,1
074,001,2023-10-06_10h15.54.848,exp_g2,2022.2.5,MacIntel,60.0024001,,,,,,,072,l1,f,en,na,audio/072.wav,,l1_f_en_na_072,,,,,,,image/america.png,image/spain.png,,,,,,,,,,,2,america,spain,,,,,,,,,,,"[""lshift""]",[1.4342000000029884],0,34,34,11,1,
074,001,2023-10-06_10h15.54.848,exp_g2,2022.2.5,MacIntel,60.0024001,,,,,,,017,l1,t,es,na,audio/017.wav,,l1_t_es_na_017,,,,,,,image/america.png,image/spain.png,,,,,,,,,,,2,america,spain,,,,,,,,,,,"[""lshift"",""rshift""]","[1.517500000000041,2.566099999994094]",0,35,35,41,1,1
074,001,2023-10-06_10h15.54.848,exp_g2,2022.2.5,MacIntel,60.0024001,,,,,,,074,l1,f,en,na,audio/074.wav,,l1_f_en_na_074,,,,,,,image/america.png,image/spain.png,,,,,,,,,,,2,america,spain,,,,,,,,,,,"[""lshift""]",[1.3007000000030757],0,36,36,13,1,
074,001,2023-10-06_10h15.54.848,exp_g2,2022.2.5,MacIntel,60.0024001,,,,,,,069,l1,f,en,na,audio/069.wav,,l1_f_en_na_069,,,,,,,image/america.png,image/spain.png,,,,,,,,,,,2,america,spain,,,,,,,,,,,"[""lshift""]",[1.4164999999999281],0,37,37,8,1,
074,001,2023-10-06_10h15.54.848,exp_g2,2022.2.5,MacIntel,60.0024001,,,,,,,061,l1,f,en,na,audio/061.wav,,l1_f_en_na_061,,,,,,,image/america.png,image/spain.png,,,,,,,,,,,2,america,spain,,,,,,,,,,,"[""lshift""]",[1.5312999999970316],0,38,38,0,1,
074,001,2023-10-06_10h15.54.848,exp_g2,2022.2.5,MacIntel,60.0024001,,,,,,,018,l1,t,es,na,audio/018.wav,,l1_t_es_na_018,,,,,,,image/america.png,image/spain.png,,,,,,,,,,,2,america,spain,,,,,,,,,,,"[""lshift"",""rshift""]","[1.3257999999970025,2.255799999997066]",0,39,39,42,1,1
074,001,2023-10-06_10h15.54.848,exp_g2,2022.2.5,MacIntel,60.0024001,,,,,,,082,l1,f,se,na,audio/082.wav,,l1_f_se_na_082,,,,,,,image/america.png,image/spain.png,,,,,,,,,,,2,america,spain,,,,,,,,,,,"[""rshift"",""lshift""]","[1.3501000000088652,2.3362000000029184]",0,40,40,21,1,1
074,001,2023-10-06_10h15.54.848,exp_g2,2022.2.5,MacIntel,60.0024001,,,,,,,159,l1,t,es,f0c,audio/159.wav,,l1_t_es_f0c_159,,,,,,,image/america.png,image/spain.png,,,,,,,,,,,2,america,spain,,,,,,,,,,,"[""lshift"",""rshift""]","[1.4374000000059368,2.52049999999997]",0,41,41,53,1,1
074,001,2023-10-06_10h15.54.848,exp_g2,2022.2.5,MacIntel,60.0024001,,,,,,,065,l1,f,en,na,audio/065.wav,,l1_f_en_na_065,,,,,,,image/america.png,image/spain.png,,,,,,,,,,,2,america,spain,,,,,,,,,,,"[""lshift""]",[1.366299999997068],0,42,42,4,1,
074,001,2023-10-06_10h15.54.848,exp_g2,2022.2.5,MacIntel,60.0024001,,,,,,,062,l1,f,en,na,audio/062.wav,,l1_f_en_na_062,,,,,,,image/america.png,image/spain.png,,,,,,,,,,,2,america,spain,,,,,,,,,,,"[""lshift""]",[1.6887999999969452],0,43,43,1,1,
074,001,2023-10-06_10h15.54.848,exp_g2,2022.2.5,MacIntel,60.0024001,,,,,,,080,l1,f,se,na,audio/080.wav,,l1_f_se_na_080,,,,,,,image/america.png,image/spain.png,,,,,,,,,,,2,america,spain,,,,,,,,,,,"[""rshift"",""lshift""]","[1.5519000000059577,2.4009999999999536]",0,44,44,19,1,1
074,001,2023-10-06_10h15.54.848,exp_g2,2022.2.5,MacIntel,60.0024001,,,,,,,011,l1,t,es,na,audio/011.wav,,l1_t_es_na_011,,,,,,,image/america.png,image/spain.png,,,,,,,,,,,2,america,spain,,,,,,,,,,,"[""lshift"",""rshift""]","[1.455900000005954,2.3354000000059614]",0,45,45,35,1,1
074,001,2023-10-06_10h15.54.848,exp_g2,2022.2.5,MacIntel,60.0024001,,,,,,,087,l1,f,sp,na,audio/087.wav,,l1_f_sp_na_087,,,,,,,image/america.png,image/spain.png,,,,,,,,,,,2,america,spain,,,,,,,,,,,"[""rshift""]",[1.3999999999999773],0,46,46,26,1,
074,001,2023-10-06_10h15.54.848,exp_g2,2022.2.5,MacIntel,60.0024001,,,,,,,067,l1,f,en,na,audio/067.wav,,l1_f_en_na_067,,,,,,,image/america.png,image/spain.png,,,,,,,,,,,2,america,spain,,,,,,,,,,,"[""lshift""]",[1.4328999999910366],0,47,47,6,1,
074,001,2023-10-06_10h15.54.848,exp_g2,2022.2.5,MacIntel,60.0024001,,,,,,,019,l1,t,es,na,audio/019.wav,,l1_t_es_na_019,,,,,,,image/america.png,image/spain.png,,,,,,,,,,,2,america,spain,,,,,,,,,,,"[""lshift"",""rshift""]","[1.7189000000059877,2.7174000000059095]",0,48,48,43,1,1
074,001,2023-10-06_10h15.54.848,exp_g2,2022.2.5,MacIntel,60.0024001,,,,,,,091,l1,f,sp,na,audio/091.wav,,l1_f_sp_na_091,,,,,,,image/america.png,image/spain.png,,,,,,,,,,,2,america,spain,,,,,,,,,,,"[""lshift"",""rshift""]","[1.484200000002943,1.7348999999910575]",0,49,49,30,1,
074,001,2023-10-06_10h15.54.848,exp_g2,2022.2.5,MacIntel,60.0024001,,,,,,,070,l1,f,en,na,audio/070.wav,,l1_f_en_na_070,,,,,,,image/america.png,image/spain.png,,,,,,,,,,,2,america,spain,,,,,,,,,,,"[""lshift""]",[1.4678999999911184],0,50,50,9,1,
074,001,2023-10-06_10h15.54.848,exp_g2,2022.2.5,MacIntel,60.0024001,,,,,,,014,l1,t,es,na,audio/014.wav,,l1_t_es_na_014,,,,,,,image/america.png,image/spain.png,,,,,,,,,,,2,america,spain,,,,,,,,,,,"[""lshift"",""rshift""]","[2.038499999999999,2.3885999999939713]",0,51,51,38,1,1
074,001,2023-10-06_10h15.54.848,exp_g2,2022.2.5,MacIntel,60.0024001,,,,,,,085,l1,f,se,na,audio/085.wav,,l1_f_se_na_085,,,,,,,image/america.png,image/spain.png,,,,,,,,,,,2,america,spain,,,,,,,,,,,"[""rshift"",""lshift""]","[1.2187999999970316,2.4389000000059013]",0,52,52,24,1,1
074,001,2023-10-06_10h15.54.848,exp_g2,2022.2.5,MacIntel,60.0024001,,,,,,,063,l1,f,en,na,audio/063.wav,,l1_f_en_na_063,,,,,,,image/america.png,image/spain.png,,,,,,,,,,,2,america,spain,,,,,,,,,,,"[""lshift""]",[1.38149999999996],0,53,53,2,1,
074,001,2023-10-06_10h15.54.848,exp_g2,2022.2.5,MacIntel,60.0024001,,,,,,,095,l1,f,sp,na,audio/095.wav,,l1_f_sp_na_095,,,,,,,image/america.png,image/spain.png,,,,,,,,,,,2,america,spain,,,,,,,,,,,"[""rshift""]",[1.2007999999971162],0,54,54,34,1,
074,001,2023-10-06_10h15.54.848,exp_g2,2022.2.5,MacIntel,60.0024001,,,,,,,,,,,,,,,,,,,,,,,,,,,,,,,,,,,,,,,,,,,,,,,,,,,,,
