participant,session,date,expName,psychopyVersion,OS,frameRate,exp1_trial_key.keys,exp1_trial_key.rt,exp1_trial_loop.thisRepN,exp1_trial_loop.thisTrialN,exp1_trial_loop.thisN,exp1_trial_loop.thisIndex,exp1_trial_loop.ran,num,list,cond,lang,type,sound_dir,phr,sent_code,mat,mat_num,emb_num,emb,cut,mat_f0_c,left,right,correct_img,correct_key,exp1_key.keys,exp1_key.corr,exp1_key.rt,exp1_loop.thisRepN,exp1_loop.thisTrialN,exp1_loop.thisN,exp1_loop.thisIndex,exp1_loop.ran,exp_num,image,image_alt,left_img,right_img,image_dir,exp2_trial_key.keys,exp2_trial_key.rt,exp2_trial_loop.thisRepN,exp2_trial_loop.thisTrialN,exp2_trial_loop.thisN,exp2_trial_loop.thisIndex,exp2_trial_loop.ran,exp2_retrial.thisRepN,exp2_retrial.thisTrialN,exp2_retrial.thisN,exp2_retrial.thisIndex,exp2_retrial.ran,exp2_key.keys,exp2_key.rt,exp2_loop.thisRepN,exp2_loop.thisTrialN,exp2_loop.thisN,exp2_loop.thisIndex,exp2_loop.ran,cs
075,001,2023-10-12_11h13.11.698,exp_g2,2022.2.5,MacIntel,60.0024001,,,,,,,,,,,,,,,,,,,,,,,,,,,,,,,,,,,,,,,,,,,,,,,,,,,,,,,,,,,
075,001,2023-10-12_11h13.11.698,exp_g2,2022.2.5,MacIntel,60.0024001,"[""lshift""]",[2.8021000000000953],0,0,0,0,1,tr1,lt,tr,en,na,practice_trial/audio/tr1.wav,Where are your kids?,lt_tr_en_na_tr1,-,-,-,-,-,-,image/kids.png,image/plates.png,kids,lshift,,,,,,,,,,,,,,,,,,,,,,,,,,,,,,,,,,
075,001,2023-10-12_11h13.11.698,exp_g2,2022.2.5,MacIntel,60.0024001,"[""rshift""]",[2.1410000000000053],0,1,1,1,1,tr2,lt,tr,en,na,practice_trial/audio/tr2.wav,Who is buying my car?,lt_tr_en_na_tr2,-,-,-,-,-,-,image/bag.png,image/car.png,car,rshift,,,,,,,,,,,,,,,,,,,,,,,,,,,,,,,,,,
075,001,2023-10-12_11h13.11.698,exp_g2,2022.2.5,MacIntel,60.0024001,"[""lshift""]",[2.052899999999923],0,2,2,2,1,tr3,lt,tr,sp,na,practice_trial/audio/tr3.wav,¿Dónde está mi perro?,lt_tr_sp_na_tr3,-,-,-,-,-,-,image/dog.png,image/grandma.png,dog,lshift,,,,,,,,,,,,,,,,,,,,,,,,,,,,,,,,,,
075,001,2023-10-12_11h13.11.698,exp_g2,2022.2.5,MacIntel,60.0024001,"[""rshift""]",[2.959000000000003],0,3,3,3,1,tr4,lt,tr,sp,na,practice_trial/audio/tr4.wav,¿De quién es la bolsa?,lt_tr_sp_na_tr4,-,-,-,-,-,-,image/shirt.png,image/bag.png,bag,rshift,,,,,,,,,,,,,,,,,,,,,,,,,,,,,,,,,,
075,001,2023-10-12_11h13.11.698,exp_g2,2022.2.5,MacIntel,60.0024001,"[""lshift""]",[3.067899999999895],0,4,4,4,1,tr5,lt,tr,se,na,practice_trial/audio/tr5.wav,¿Dónde encontraste sus donuts?,lt_tr_se_na_tr5,-,-,-,-,-,-,image/donut.png,image/cups.png,donut,lshift,,,,,,,,,,,,,,,,,,,,,,,,,,,,,,,,,,
075,001,2023-10-12_11h13.11.698,exp_g2,2022.2.5,MacIntel,60.0024001,"[""rshift""]",[2.5038000000000693],0,5,5,5,1,tr6,lt,tr,se,na,practice_trial/audio/tr6.wav,¿Cuándo compraste tu sweater?,lt_tr_se_na_tr6,-,-,-,-,-,-,image/chair.png,image/sweater.png,sweater,rshift,,,,,,,,,,,,,,,,,,,,,,,,,,,,,,,,,,
075,001,2023-10-12_11h13.11.698,exp_g2,2022.2.5,MacIntel,60.0024001,"[""lshift""]",[2.9233000000000686],0,6,6,6,1,tr7,lt,tr,es,na,practice_trial/audio/tr7.wav,Why do you have my camisa?,lt_tr_es_na_tr7,-,-,-,-,-,-,image/shirt.png,image/wallet.png,shirt,lshift,,,,,,,,,,,,,,,,,,,,,,,,,,,,,,,,,,
075,001,2023-10-12_11h13.11.698,exp_g2,2022.2.5,MacIntel,60.0024001,"[""rshift""]",[1.9710000000000036],0,7,7,7,1,tr8,lt,tr,es,na,practice_trial/audio/tr8.wav,Where did you find his chanclas?,lt_tr_es_na_tr8,-,-,-,-,-,-,image/key.png,image/flipflops.png,flipflops,rshift,,,,,,,,,,,,,,,,,,,,,,,,,,,,,,,,,,
075,001,2023-10-12_11h13.11.698,exp_g2,2022.2.5,MacIntel,60.0024001,,,,,,,,,,,,,,,,,,,,,,,,,,,,,,,,,,,,,,,,,,,,,,,,,,,,,,,,,,,
075,001,2023-10-12_11h13.11.698,exp_g2,2022.2.5,MacIntel,60.0024001,,,,,,,,155,l1,t,es,f0c,audio/155.wav,,l1_t_es_f0c_155,,,,,,,image/flipflops.png,image/flower.png,flipflops,lshift,lshift,1,2.3653,0,0,0,49,1,1,flipflops,flower,flipflops,flower,,,,,,,,,,,,,,,,,,,,,
075,001,2023-10-12_11h13.11.698,exp_g2,2022.2.5,MacIntel,60.0024001,,,,,,,,124,l2,f,sp,na,audio/124.wav,,l2_f_sp_na_124,,,,,,,image/bag.png,image/bed.png,bed,rshift,rshift,1,2.3115,0,1,1,28,1,1,bed,bag,bag,bed,,,,,,,,,,,,,,,,,,,,,
075,001,2023-10-12_11h13.11.698,exp_g2,2022.2.5,MacIntel,60.0024001,,,,,,,,157,l1,t,es,f0c,audio/157.wav,,l1_t_es_f0c_157,,,,,,,image/jacket.png,image/shirt.png,jacket,lshift,lshift,1,2.0665,0,2,2,51,1,1,jacket,shirt,jacket,shirt,,,,,,,,,,,,,,,,,,,,,
075,001,2023-10-12_11h13.11.698,exp_g2,2022.2.5,MacIntel,60.0024001,,,,,,,,107,l2,f,en,na,audio/107.wav,,l2_f_en_na_107,,,,,,,image/man.png,image/cat.png,man,lshift,lshift,1,2.1589,0,3,3,11,1,1,man,cat,man,cat,,,,,,,,,,,,,,,,,,,,,
075,001,2023-10-12_11h13.11.698,exp_g2,2022.2.5,MacIntel,60.0024001,,,,,,,,099,l2,f,en,na,audio/099.wav,,l2_f_en_na_099,,,,,,,image/dog.png,image/cat.png,dog,lshift,lshift,1,1.8802,0,4,4,3,1,1,dog,cat,dog,cat,,,,,,,,,,,,,,,,,,,,,
075,001,2023-10-12_11h13.11.698,exp_g2,2022.2.5,MacIntel,60.0024001,,,,,,,,125,l2,f,sp,na,audio/125.wav,,l2_f_sp_na_125,,,,,,,image/desk.png,image/bottle.png,desk,lshift,rshift,0,2.5922,0,5,5,29,1,1,desk,bottle,desk,bottle,,,,,,,,,,,,,,,,,,,,,
075,001,2023-10-12_11h13.11.698,exp_g2,2022.2.5,MacIntel,60.0024001,,,,,,,,153,l1,t,es,f0c,audio/153.wav,,l1_t_es_f0c_153,,,,,,,image/cellphone.png,image/book.png,cellphone,lshift,lshift,1,2.4274,0,6,6,47,1,1,cellphone,book,cellphone,book,,,,,,,,,,,,,,,,,,,,,
075,001,2023-10-12_11h13.11.698,exp_g2,2022.2.5,MacIntel,60.0024001,,,,,,,,160,l1,t,es,f0c,audio/160.wav,,l1_t_es_f0c_160,,,,,,,image/ring.png,image/bracelet.png,bracelet,rshift,rshift,1,3.8271,0,7,7,54,1,1,bracelet,ring,ring,bracelet,,,,,,,,,,,,,,,,,,,,,
075,001,2023-10-12_11h13.11.698,exp_g2,2022.2.5,MacIntel,60.0024001,,,,,,,,021,l2,t,es,na,audio/021.wav,,l2_t_es_na_021,,,,,,,image/jacket.png,image/flipflops.png,jacket,lshift,lshift,1,2.0106,0,8,8,35,1,1,jacket,flipflops,jacket,flipflops,,,,,,,,,,,,,,,,,,,,,
075,001,2023-10-12_11h13.11.698,exp_g2,2022.2.5,MacIntel,60.0024001,,,,,,,,122,l2,f,sp,na,audio/122.wav,,l2_f_sp_na_122,,,,,,,image/desk.png,image/chair.png,chair,rshift,rshift,1,2.4053,0,9,9,26,1,1,chair,desk,desk,chair,,,,,,,,,,,,,,,,,,,,,
075,001,2023-10-12_11h13.11.698,exp_g2,2022.2.5,MacIntel,60.0024001,,,,,,,,115,l2,f,se,na,audio/115.wav,,l2_f_se_na_115,,,,,,,image/notebook.png,image/cellphone.png,notebook,lshift,lshift,1,2.6106,0,10,10,19,1,1,notebook,cellphone,notebook,cellphone,,,,,,,,,,,,,,,,,,,,,
075,001,2023-10-12_11h13.11.698,exp_g2,2022.2.5,MacIntel,60.0024001,,,,,,,,123,l2,f,sp,na,audio/123.wav,,l2_f_sp_na_123,,,,,,,image/sweater.png,image/cellphone.png,sweater,lshift,lshift,1,2.0595,0,11,11,27,1,1,sweater,cellphone,sweater,cellphone,,,,,,,,,,,,,,,,,,,,,
075,001,2023-10-12_11h13.11.698,exp_g2,2022.2.5,MacIntel,60.0024001,,,,,,,,119,l2,f,se,na,audio/119.wav,,l2_f_se_na_119,,,,,,,image/penthouse.png,image/rocket.png,penthouse,lshift,lshift,1,2.5298,0,12,12,23,1,1,penthouse,rocket,penthouse,rocket,,,,,,,,,,,,,,,,,,,,,
075,001,2023-10-12_11h13.11.698,exp_g2,2022.2.5,MacIntel,60.0024001,,,,,,,,112,l2,f,se,na,audio/112.wav,,l2_f_se_na_112,,,,,,,image/burger.png,image/hotdog.png,hotdog,rshift,rshift,1,2.2563,0,13,13,16,1,1,hotdog,burger,burger,hotdog,,,,,,,,,,,,,,,,,,,,,
075,001,2023-10-12_11h13.11.698,exp_g2,2022.2.5,MacIntel,60.0024001,,,,,,,,100,l2,f,en,na,audio/100.wav,,l2_f_en_na_100,,,,,,,image/wallet.png,image/scarf.png,scarf,rshift,rshift,1,2.1077,0,14,14,4,1,1,scarf,wallet,wallet,scarf,,,,,,,,,,,,,,,,,,,,,
075,001,2023-10-12_11h13.11.698,exp_g2,2022.2.5,MacIntel,60.0024001,,,,,,,,098,l2,f,en,na,audio/098.wav,,l2_f_en_na_098,,,,,,,image/man.png,image/woman.png,woman,rshift,rshift,1,2.8726,0,15,15,2,1,1,woman,man,man,woman,,,,,,,,,,,,,,,,,,,,,
075,001,2023-10-12_11h13.11.698,exp_g2,2022.2.5,MacIntel,60.0024001,,,,,,,,105,l2,f,en,na,audio/105.wav,,l2_f_en_na_105,,,,,,,image/bed.png,image/plane.png,bed,lshift,lshift,1,2.5194,0,16,16,9,1,1,bed,plane,bed,plane,,,,,,,,,,,,,,,,,,,,,
075,001,2023-10-12_11h13.11.698,exp_g2,2022.2.5,MacIntel,60.0024001,,,,,,,,129,l2,f,sp,na,audio/129.wav,,l2_f_sp_na_129,,,,,,,image/bag.png,image/chair.png,bag,lshift,lshift,1,3.0855,0,17,17,33,1,1,bag,chair,bag,chair,,,,,,,,,,,,,,,,,,,,,
075,001,2023-10-12_11h13.11.698,exp_g2,2022.2.5,MacIntel,60.0024001,,,,,,,,029,l2,t,es,na,audio/029.wav,,l2_t_es_na_029,,,,,,,image/armchair.png,image/ring.png,armchair,lshift,rshift,0,3.0109,0,18,18,43,1,1,armchair,ring,armchair,ring,,,,,,,,,,,,,,,,,,,,,
075,001,2023-10-12_11h13.11.698,exp_g2,2022.2.5,MacIntel,60.0024001,,,,,,,,022,l2,t,es,na,audio/022.wav,,l2_t_es_na_022,,,,,,,image/dog.png,image/cat.png,cat,rshift,rshift,1,2.2637,0,19,19,36,1,1,cat,dog,dog,cat,,,,,,,,,,,,,,,,,,,,,
075,001,2023-10-12_11h13.11.698,exp_g2,2022.2.5,MacIntel,60.0024001,,,,,,,,101,l2,f,en,na,audio/101.wav,,l2_f_en_na_101,,,,,,,image/computer.png,image/bag.png,computer,lshift,lshift,1,2.4033,0,20,20,5,1,1,computer,bag,computer,bag,,,,,,,,,,,,,,,,,,,,,
075,001,2023-10-12_11h13.11.698,exp_g2,2022.2.5,MacIntel,60.0024001,,,,,,,,113,l2,f,se,na,audio/113.wav,,l2_f_se_na_113,,,,,,,image/loafers.png,image/sneakers.png,loafers,lshift,lshift,1,2.1013,0,21,21,17,1,1,loafers,sneakers,loafers,sneakers,,,,,,,,,,,,,,,,,,,,,
075,001,2023-10-12_11h13.11.698,exp_g2,2022.2.5,MacIntel,60.0024001,,,,,,,,128,l2,f,sp,na,audio/128.wav,,l2_f_sp_na_128,,,,,,,image/cups.png,image/kids.png,kids,rshift,lshift,0,2.4606,0,22,22,32,1,1,kids,cups,cups,kids,,,,,,,,,,,,,,,,,,,,,
075,001,2023-10-12_11h13.11.698,exp_g2,2022.2.5,MacIntel,60.0024001,,,,,,,,097,l2,f,en,na,audio/097.wav,,l2_f_en_na_097,,,,,,,image/ring.png,image/belt.png,ring,lshift,lshift,1,2.227,0,23,23,1,1,1,ring,belt,ring,belt,,,,,,,,,,,,,,,,,,,,,
075,001,2023-10-12_11h13.11.698,exp_g2,2022.2.5,MacIntel,60.0024001,,,,,,,,028,l2,t,es,na,audio/028.wav,,l2_t_es_na_028,,,,,,,image/pants.png,image/glasses.png,glasses,rshift,rshift,1,2.5108,0,24,24,42,1,1,glasses,pants,pants,glasses,,,,,,,,,,,,,,,,,,,,,
075,001,2023-10-12_11h13.11.698,exp_g2,2022.2.5,MacIntel,60.0024001,,,,,,,,104,l2,f,en,na,audio/104.wav,,l2_f_en_na_104,,,,,,,image/shirt.png,image/bag.png,bag,rshift,rshift,1,1.8148,0,25,25,8,1,1,bag,shirt,shirt,bag,,,,,,,,,,,,,,,,,,,,,
075,001,2023-10-12_11h13.11.698,exp_g2,2022.2.5,MacIntel,60.0024001,,,,,,,,108,l2,f,en,na,audio/108.wav,,l2_f_en_na_108,,,,,,,image/scarf.png,image/socks.png,socks,rshift,rshift,1,2.3224,0,26,26,12,1,1,socks,scarf,scarf,socks,,,,,,,,,,,,,,,,,,,,,
075,001,2023-10-12_11h13.11.698,exp_g2,2022.2.5,MacIntel,60.0024001,,,,,,,,152,l1,t,es,f0c,audio/152.wav,,l1_t_es_f0c_152,,,,,,,image/car.png,image/grandma.png,grandma,rshift,rshift,1,2.387,0,27,27,46,1,1,grandma,car,car,grandma,,,,,,,,,,,,,,,,,,,,,
075,001,2023-10-12_11h13.11.698,exp_g2,2022.2.5,MacIntel,60.0024001,,,,,,,,159,l1,t,es,f0c,audio/159.wav,,l1_t_es_f0c_159,,,,,,,image/restaurant.png,image/hotel.png,restaurant,lshift,lshift,1,2.8446,0,28,28,53,1,1,restaurant,hotel,restaurant,hotel,,,,,,,,,,,,,,,,,,,,,
075,001,2023-10-12_11h13.11.698,exp_g2,2022.2.5,MacIntel,60.0024001,,,,,,,,030,l2,t,es,na,audio/030.wav,,l2_t_es_na_030,,,,,,,image/flipflops.png,image/boy.png,boy,rshift,rshift,1,2.4459,0,29,29,44,1,1,boy,flipflops,flipflops,boy,,,,,,,,,,,,,,,,,,,,,
075,001,2023-10-12_11h13.11.698,exp_g2,2022.2.5,MacIntel,60.0024001,,,,,,,,116,l2,f,se,na,audio/116.wav,,l2_f_se_na_116,,,,,,,image/sweatpants.png,image/boxers.png,boxers,rshift,rshift,1,2.3543,0,30,30,20,1,1,boxers,sweatpants,sweatpants,boxers,,,,,,,,,,,,,,,,,,,,,
075,001,2023-10-12_11h13.11.698,exp_g2,2022.2.5,MacIntel,60.0024001,,,,,,,,111,l2,f,se,na,audio/111.wav,,l2_f_se_na_111,,,,,,,image/mashedpotatoes.png,image/donut.png,mashedpotatoes,lshift,lshift,1,2.7057,0,31,31,15,1,1,mashedpotatoes,donut,mashedpotatoes,donut,,,,,,,,,,,,,,,,,,,,,
075,001,2023-10-12_11h13.11.698,exp_g2,2022.2.5,MacIntel,60.0024001,,,,,,,,156,l1,t,es,f0c,audio/156.wav,,l1_t_es_f0c_156,,,,,,,image/city.png,image/village.png,village,rshift,rshift,1,2.9424,0,32,32,50,1,1,village,city,city,village,,,,,,,,,,,,,,,,,,,,,
075,001,2023-10-12_11h13.11.698,exp_g2,2022.2.5,MacIntel,60.0024001,,,,,,,,025,l2,t,es,na,audio/025.wav,,l2_t_es_na_025,,,,,,,image/cellphone.png,image/truck.png,cellphone,lshift,lshift,1,2.3285,0,33,33,39,1,1,cellphone,truck,cellphone,truck,,,,,,,,,,,,,,,,,,,,,
075,001,2023-10-12_11h13.11.698,exp_g2,2022.2.5,MacIntel,60.0024001,,,,,,,,023,l2,t,es,na,audio/023.wav,,l2_t_es_na_023,,,,,,,image/wine.png,image/cellphone.png,wine,lshift,lshift,1,2.5005,0,34,34,37,1,1,wine,cellphone,wine,cellphone,,,,,,,,,,,,,,,,,,,,,
075,001,2023-10-12_11h13.11.698,exp_g2,2022.2.5,MacIntel,60.0024001,,,,,,,,026,l2,t,es,na,audio/026.wav,,l2_t_es_na_026,,,,,,,image/village.png,image/grandma.png,grandma,rshift,rshift,1,2.4099,0,35,35,40,1,1,grandma,village,village,grandma,,,,,,,,,,,,,,,,,,,,,
075,001,2023-10-12_11h13.11.698,exp_g2,2022.2.5,MacIntel,60.0024001,,,,,,,,109,l2,f,en,na,audio/109.wav,,l2_f_en_na_109,,,,,,,image/fish.png,image/woman.png,fish,lshift,lshift,1,1.7093,0,36,36,13,1,1,fish,woman,fish,woman,,,,,,,,,,,,,,,,,,,,,
075,001,2023-10-12_11h13.11.698,exp_g2,2022.2.5,MacIntel,60.0024001,,,,,,,,120,l2,f,se,na,audio/120.wav,,l2_f_se_na_120,,,,,,,image/glasses.png,image/joycons.png,joycons,rshift,rshift,1,2.7917,0,37,37,24,1,1,joycons,glasses,glasses,joycons,,,,,,,,,,,,,,,,,,,,,
075,001,2023-10-12_11h13.11.698,exp_g2,2022.2.5,MacIntel,60.0024001,,,,,,,,121,l2,f,sp,na,audio/121.wav,,l2_f_sp_na_121,,,,,,,image/shoe.png,image/glasses.png,shoe,lshift,lshift,1,2.2609,0,38,38,25,1,1,shoe,glasses,shoe,glasses,,,,,,,,,,,,,,,,,,,,,
075,001,2023-10-12_11h13.11.698,exp_g2,2022.2.5,MacIntel,60.0024001,,,,,,,,130,l2,f,sp,na,audio/130.wav,,l2_f_sp_na_130,,,,,,,image/socks.png,image/glasses.png,glasses,rshift,lshift,0,2.2352,0,39,39,34,1,1,glasses,socks,socks,glasses,,,,,,,,,,,,,,,,,,,,,
075,001,2023-10-12_11h13.11.698,exp_g2,2022.2.5,MacIntel,60.0024001,,,,,,,,096,l2,f,en,na,audio/096.wav,,l2_f_en_na_096,,,,,,,image/woman.png,image/cat.png,cat,rshift,rshift,1,1.8756,0,40,40,0,1,1,cat,woman,woman,cat,../image/,,,,,,,,,,,,,,,,,,,,
075,001,2023-10-12_11h13.11.698,exp_g2,2022.2.5,MacIntel,60.0024001,,,,,,,,126,l2,f,sp,na,audio/126.wav,,l2_f_sp_na_126,,,,,,,image/backpack.png,image/key.png,key,rshift,rshift,1,2.1909,0,41,41,30,1,1,key,backpack,backpack,key,,,,,,,,,,,,,,,,,,,,,
075,001,2023-10-12_11h13.11.698,exp_g2,2022.2.5,MacIntel,60.0024001,,,,,,,,024,l2,t,es,na,audio/024.wav,,l2_t_es_na_024,,,,,,,image/bed.png,image/jug.png,jug,rshift,rshift,1,2.7794,0,42,42,38,1,1,jug,bed,bed,jug,,,,,,,,,,,,,,,,,,,,,
075,001,2023-10-12_11h13.11.698,exp_g2,2022.2.5,MacIntel,60.0024001,,,,,,,,103,l2,f,en,na,audio/103.wav,,l2_f_en_na_103,,,,,,,image/toys.png,image/sneakers.png,toys,lshift,lshift,1,1.9954,0,43,43,7,1,1,toys,sneakers,toys,sneakers,,,,,,,,,,,,,,,,,,,,,
075,001,2023-10-12_11h13.11.698,exp_g2,2022.2.5,MacIntel,60.0024001,,,,,,,,158,l1,t,es,f0c,audio/158.wav,,l1_t_es_f0c_158,,,,,,,image/pants.png,image/shirt.png,shirt,rshift,rshift,1,2.509,0,44,44,52,1,1,shirt,pants,pants,shirt,,,,,,,,,,,,,,,,,,,,,
075,001,2023-10-12_11h13.11.698,exp_g2,2022.2.5,MacIntel,60.0024001,,,,,,,,117,l2,f,se,na,audio/117.wav,,l2_f_se_na_117,,,,,,,image/spongebob.png,image/mickeymouse.png,spongebob,lshift,lshift,1,2.2742,0,45,45,21,1,1,spongebob,mickeymouse,spongebob,mickeymouse,,,,,,,,,,,,,,,,,,,,,
075,001,2023-10-12_11h13.11.698,exp_g2,2022.2.5,MacIntel,60.0024001,,,,,,,,114,l2,f,se,na,audio/114.wav,,l2_f_se_na_114,,,,,,,image/jeans.png,image/sweatpants.png,sweatpants,rshift,lshift,0,2.5496,0,46,46,18,1,1,sweatpants,jeans,jeans,sweatpants,,,,,,,,,,,,,,,,,,,,,
075,001,2023-10-12_11h13.11.698,exp_g2,2022.2.5,MacIntel,60.0024001,,,,,,,,118,l2,f,se,na,audio/118.wav,,l2_f_se_na_118,,,,,,,image/icecream.png,image/donut.png,donut,rshift,rshift,1,1.9973,0,47,47,22,1,1,donut,icecream,icecream,donut,,,,,,,,,,,,,,,,,,,,,
075,001,2023-10-12_11h13.11.698,exp_g2,2022.2.5,MacIntel,60.0024001,,,,,,,,154,l1,t,es,f0c,audio/154.wav,,l1_t_es_f0c_154,,,,,,,image/basket.png,image/truck.png,truck,rshift,rshift,1,3.2518,0,48,48,48,1,1,truck,basket,basket,truck,,,,,,,,,,,,,,,,,,,,,
075,001,2023-10-12_11h13.11.698,exp_g2,2022.2.5,MacIntel,60.0024001,,,,,,,,127,l2,f,sp,na,audio/127.wav,,l2_f_sp_na_127,,,,,,,image/cat.png,image/dog.png,cat,lshift,lshift,1,3.5167,0,49,49,31,1,1,cat,dog,cat,dog,,,,,,,,,,,,,,,,,,,,,
075,001,2023-10-12_11h13.11.698,exp_g2,2022.2.5,MacIntel,60.0024001,,,,,,,,106,l2,f,en,na,audio/106.wav,,l2_f_en_na_106,,,,,,,image/wallet.png,image/computer.png,computer,rshift,rshift,1,2.5795,0,50,50,10,1,1,computer,wallet,wallet,computer,,,,,,,,,,,,,,,,,,,,,
075,001,2023-10-12_11h13.11.698,exp_g2,2022.2.5,MacIntel,60.0024001,,,,,,,,027,l2,t,es,na,audio/027.wav,,l2_t_es_na_027,,,,,,,image/shirt.png,image/book.png,shirt,lshift,lshift,1,2.1439,0,51,51,41,1,1,shirt,book,shirt,book,,,,,,,,,,,,,,,,,,,,,
075,001,2023-10-12_11h13.11.698,exp_g2,2022.2.5,MacIntel,60.0024001,,,,,,,,102,l2,f,en,na,audio/102.wav,,l2_f_en_na_102,,,,,,,image/socks.png,image/book.png,books,rshift,rshift,1,2.3821,0,52,52,6,1,1,books,socks,socks,book,,,,,,,,,,,,,,,,,,,,,
075,001,2023-10-12_11h13.11.698,exp_g2,2022.2.5,MacIntel,60.0024001,,,,,,,,151,l1,t,es,f0c,audio/151.wav,,l1_t_es_f0c_151,,,,,,,image/cat.png,image/flower.png,cat,lshift,lshift,1,2.193,0,53,53,45,1,1,cat,flower,cat,flower,,,,,,,,,,,,,,,,,,,,,
075,001,2023-10-12_11h13.11.698,exp_g2,2022.2.5,MacIntel,60.0024001,,,,,,,,110,l2,f,en,na,audio/110.wav,,l2_f_en_na_110,,,,,,,image/dog.png,image/cat.png,cat,rshift,rshift,1,3.0725,0,54,54,14,1,1,cat,dog,dog,cat,,,,,,,,,,,,,,,,,,,,,
075,001,2023-10-12_11h13.11.698,exp_g2,2022.2.5,MacIntel,60.0024001,,,,,,,,,,,,,,,,,,,,,,,,,,,,,,,,,,,,,,,,,,,,,,,,,,,,,,,,,,,
075,001,2023-10-12_11h13.11.698,exp_g2,2022.2.5,MacIntel,60.0024001,,,,,,,,tr1,lt,tr,en,na,practice_trial/audio/tr1.wav,Where are your kids?,lt_tr_en_na_tr1,-,-,-,-,-,-,image/america.png,image/spain.png,,,,,,,,,,,,,,,,,"[""lshift"",""lshift"",""lshift""]","[2.0620999999996457,4.062999999999988,4.6291999999997415]",0,0,0,0,1,,,,,,,,,,,,,
075,001,2023-10-12_11h13.11.698,exp_g2,2022.2.5,MacIntel,60.0024001,,,,,,,,tr2,lt,tr,en,na,practice_trial/audio/tr2.wav,Who is buying my car?,lt_tr_en_na_tr2,-,-,-,-,-,-,image/america.png,image/spain.png,,,,,,,,,,,,,,,,,"[""lshift"",""lshift""]","[2.5168999999999073,4.919799999999839]",0,1,1,1,1,,,,,,,,,,,,,
075,001,2023-10-12_11h13.11.698,exp_g2,2022.2.5,MacIntel,60.0024001,,,,,,,,tr3,lt,tr,sp,na,practice_trial/audio/tr3.wav,¿Dónde está mi perro?,lt_tr_sp_na_tr3,-,-,-,-,-,-,image/america.png,image/spain.png,,,,,,,,,,,,,,,,,"[""rshift"",""rshift""]","[2.6689999999999827,3.717999999999961]",0,2,2,2,1,,,,,,,,,,,,,
075,001,2023-10-12_11h13.11.698,exp_g2,2022.2.5,MacIntel,60.0024001,,,,,,,,tr4,lt,tr,sp,na,practice_trial/audio/tr4.wav,¿De quién es la bolsa?,lt_tr_sp_na_tr4,-,-,-,-,-,-,image/america.png,image/spain.png,,,,,,,,,,,,,,,,,"[""rshift"",""rshift"",""rshift"",""rshift""]","[2.5512999999997987,2.7398999999998637,2.9576000000000704,4.935999999999979]",0,3,3,3,1,,,,,,,,,,,,,
075,001,2023-10-12_11h13.11.698,exp_g2,2022.2.5,MacIntel,60.0024001,,,,,,,,tr5,lt,tr,se,na,practice_trial/audio/tr5.wav,¿Dónde encontraste sus donuts?,lt_tr_se_na_tr5,-,-,-,-,-,-,image/america.png,image/spain.png,,,,,,,,,,,,,,,,,"[""rshift""]",[3.0553000000002726],0,4,4,4,1,,,,,,,,,,,,,
075,001,2023-10-12_11h13.11.698,exp_g2,2022.2.5,MacIntel,60.0024001,,,,,,,,tr6,lt,tr,se,na,practice_trial/audio/tr6.wav,¿Cuándo compraste tu sweater?,lt_tr_se_na_tr6,-,-,-,-,-,-,image/america.png,image/spain.png,,,,,,,,,,,,,,,,,"[""rshift""]",[2.651400000000365],0,5,5,5,1,,,,,,,,,,,,,
075,001,2023-10-12_11h13.11.698,exp_g2,2022.2.5,MacIntel,60.0024001,,,,,,,,tr7,lt,tr,es,na,practice_trial/audio/tr7.wav,Why do you have my camisa?,lt_tr_es_na_tr7,-,-,-,-,-,-,image/america.png,image/spain.png,,,,,,,,,,,,,,,,,"[""lshift"",""lshift""]","[2.5841999999997256,3.516399999999919]",0,6,6,6,1,,,,,,,,,,,,,
075,001,2023-10-12_11h13.11.698,exp_g2,2022.2.5,MacIntel,60.0024001,,,,,,,,tr8,lt,tr,es,na,practice_trial/audio/tr8.wav,Where did you find his chanclas?,lt_tr_es_na_tr8,-,-,-,-,-,-,image/america.png,image/spain.png,,,,,,,,,,,,,,,,,"[""lshift""]",[2.3902999999997974],0,7,7,7,1,,,,,,,,,,,,,
075,001,2023-10-12_11h13.11.698,exp_g2,2022.2.5,MacIntel,60.0024001,,,,,,,,,,,,,,,,,,,,,,,,,,,,,,,,,,,,,,,,,,,,,,,0,0,0,0,1,,,,,,,,
075,001,2023-10-12_11h13.11.698,exp_g2,2022.2.5,MacIntel,60.0024001,,,,,,,,tr1,lt,tr,en,na,practice_trial/audio/tr1.wav,Where are your kids?,lt_tr_en_na_tr1,-,-,-,-,-,-,image/america.png,image/spain.png,,,,,,,,,,,,,,,,,"[""lshift""]",[2.3372999999998],0,0,0,0,1,,,,,,,,,,,,,
075,001,2023-10-12_11h13.11.698,exp_g2,2022.2.5,MacIntel,60.0024001,,,,,,,,tr2,lt,tr,en,na,practice_trial/audio/tr2.wav,Who is buying my car?,lt_tr_en_na_tr2,-,-,-,-,-,-,image/america.png,image/spain.png,,,,,,,,,,,,,,,,,"[""lshift""]",[2.317899999999952],0,1,1,1,1,,,,,,,,,,,,,
075,001,2023-10-12_11h13.11.698,exp_g2,2022.2.5,MacIntel,60.0024001,,,,,,,,tr3,lt,tr,sp,na,practice_trial/audio/tr3.wav,¿Dónde está mi perro?,lt_tr_sp_na_tr3,-,-,-,-,-,-,image/america.png,image/spain.png,,,,,,,,,,,,,,,,,"[""lshift""]",[2.4320000000000164],0,2,2,2,1,,,,,,,,,,,,,
075,001,2023-10-12_11h13.11.698,exp_g2,2022.2.5,MacIntel,60.0024001,,,,,,,,tr4,lt,tr,sp,na,practice_trial/audio/tr4.wav,¿De quién es la bolsa?,lt_tr_sp_na_tr4,-,-,-,-,-,-,image/america.png,image/spain.png,,,,,,,,,,,,,,,,,"[""rshift""]",[1.84050000000002],0,3,3,3,1,,,,,,,,,,,,,
075,001,2023-10-12_11h13.11.698,exp_g2,2022.2.5,MacIntel,60.0024001,,,,,,,,tr5,lt,tr,se,na,practice_trial/audio/tr5.wav,¿Dónde encontraste sus donuts?,lt_tr_se_na_tr5,-,-,-,-,-,-,image/america.png,image/spain.png,,,,,,,,,,,,,,,,,"[""rshift""]",[1.8336000000001036],0,4,4,4,1,,,,,,,,,,,,,
075,001,2023-10-12_11h13.11.698,exp_g2,2022.2.5,MacIntel,60.0024001,,,,,,,,tr6,lt,tr,se,na,practice_trial/audio/tr6.wav,¿Cuándo compraste tu sweater?,lt_tr_se_na_tr6,-,-,-,-,-,-,image/america.png,image/spain.png,,,,,,,,,,,,,,,,,"[""rshift""]",[2.8520000000000323],0,5,5,5,1,,,,,,,,,,,,,
075,001,2023-10-12_11h13.11.698,exp_g2,2022.2.5,MacIntel,60.0024001,,,,,,,,tr7,lt,tr,es,na,practice_trial/audio/tr7.wav,Why do you have my camisa?,lt_tr_es_na_tr7,-,-,-,-,-,-,image/america.png,image/spain.png,,,,,,,,,,,,,,,,,"[""lshift"",""rshift""]","[2.000499999999988,2.8627999999998224]",0,6,6,6,1,,,,,,,,,,,,,
075,001,2023-10-12_11h13.11.698,exp_g2,2022.2.5,MacIntel,60.0024001,,,,,,,,tr8,lt,tr,es,na,practice_trial/audio/tr8.wav,Where did you find his chanclas?,lt_tr_es_na_tr8,-,-,-,-,-,-,image/america.png,image/spain.png,,,,,,,,,,,,,,,,,"[""lshift"",""rshift""]","[1.2374999999999545,1.950400000000343]",0,7,7,7,1,,,,,,,,,,,,,
075,001,2023-10-12_11h13.11.698,exp_g2,2022.2.5,MacIntel,60.0024001,,,,,,,,,,,,,,,,,,,,,,,,,,,,,,,,,,,,,,,,,,,,,,,,,,,,,,,,,,,
075,001,2023-10-12_11h13.11.698,exp_g2,2022.2.5,MacIntel,60.0024001,,,,,,,,144,l2,t,es,f0u,audio/144.wav,,l2_t_es_f0u_144,,,,,,,image/america.png,image/spain.png,,,,,,,,,,,2,america,spain,,,,,,,,,,,,,,,,"[""lshift"",""rshift""]","[1.294799999999782,2.250499999999988]",0,0,0,48,1,1
075,001,2023-10-12_11h13.11.698,exp_g2,2022.2.5,MacIntel,60.0024001,,,,,,,,089,l1,f,sp,na,audio/089.wav,,l1_f_sp_na_089,,,,,,,image/america.png,image/spain.png,,,,,,,,,,,2,america,spain,,,,,,,,,,,,,,,,"[""rshift"",""rshift""]","[1.2196999999997047,2.3168999999999187]",0,1,1,28,1,
075,001,2023-10-12_11h13.11.698,exp_g2,2022.2.5,MacIntel,60.0024001,,,,,,,,146,l2,t,es,f0u,audio/146.wav,,l2_t_es_f0u_146,,,,,,,image/america.png,image/spain.png,,,,,,,,,,,2,america,spain,,,,,,,,,,,,,,,,"[""lshift"",""rshift""]","[1.305799999999806,2.8511999999997215]",0,2,2,50,1,1
075,001,2023-10-12_11h13.11.698,exp_g2,2022.2.5,MacIntel,60.0024001,,,,,,,,082,l1,f,se,na,audio/082.wav,,l1_f_se_na_082,,,,,,,image/america.png,image/spain.png,,,,,,,,,,,2,america,spain,,,,,,,,,,,,,,,,"[""rshift"",""lshift""]","[1.8009000000004107,2.600700000000188]",0,3,3,21,1,1
075,001,2023-10-12_11h13.11.698,exp_g2,2022.2.5,MacIntel,60.0024001,,,,,,,,066,l1,f,en,na,audio/066.wav,,l1_f_en_na_066,,,,,,,image/america.png,image/spain.png,,,,,,,,,,,2,america,spain,,,,,,,,,,,,,,,,"[""lshift"",""rshift"",""rshift"",""lshift""]","[1.3343999999999028,2.2226999999996906,3.517799999999795,3.804499999999962]",0,4,4,5,1,
075,001,2023-10-12_11h13.11.698,exp_g2,2022.2.5,MacIntel,60.0024001,,,,,,,,074,l1,f,en,na,audio/074.wav,,l1_f_en_na_074,,,,,,,image/america.png,image/spain.png,,,,,,,,,,,2,america,spain,,,,,,,,,,,,,,,,"[""lshift""]",[1.433799999999792],0,5,5,13,1,
075,001,2023-10-12_11h13.11.698,exp_g2,2022.2.5,MacIntel,60.0024001,,,,,,,,076,l1,f,se,na,audio/076.wav,,l1_f_se_na_076,,,,,,,image/america.png,image/spain.png,,,,,,,,,,,2,america,spain,,,,,,,,,,,,,,,,"[""rshift"",""lshift""]","[1.2232999999998242,2.4348999999999137]",0,6,6,15,1,1
075,001,2023-10-12_11h13.11.698,exp_g2,2022.2.5,MacIntel,60.0024001,,,,,,,,095,l1,f,sp,na,audio/095.wav,,l1_f_sp_na_095,,,,,,,image/america.png,image/spain.png,,,,,,,,,,,2,america,spain,,,,,,,,,,,,,,,,"[""rshift""]",[1.4056000000001063],0,7,7,34,1,
075,001,2023-10-12_11h13.11.698,exp_g2,2022.2.5,MacIntel,60.0024001,,,,,,,,068,l1,f,en,na,audio/068.wav,,l1_f_en_na_068,,,,,,,image/america.png,image/spain.png,,,,,,,,,,,2,america,spain,,,,,,,,,,,,,,,,"[""lshift""]",[1.398900000000424],0,8,8,7,1,
075,001,2023-10-12_11h13.11.698,exp_g2,2022.2.5,MacIntel,60.0024001,,,,,,,,084,l1,f,se,na,audio/084.wav,,l1_f_se_na_084,,,,,,,image/america.png,image/spain.png,,,,,,,,,,,2,america,spain,,,,,,,,,,,,,,,,"[""rshift"",""lshift""]","[1.3916000000000963,2.9713999999999032]",0,9,9,23,1,1
075,001,2023-10-12_11h13.11.698,exp_g2,2022.2.5,MacIntel,60.0024001,,,,,,,,015,l1,t,es,na,audio/015.wav,,l1_t_es_na_015,,,,,,,image/america.png,image/spain.png,,,,,,,,,,,2,america,spain,,,,,,,,,,,,,,,,"[""lshift"",""rshift""]","[1.7004999999999768,3.1170999999996525]",0,10,10,39,1,1
075,001,2023-10-12_11h13.11.698,exp_g2,2022.2.5,MacIntel,60.0024001,,,,,,,,011,l1,t,es,na,audio/011.wav,,l1_t_es_na_011,,,,,,,image/america.png,image/spain.png,,,,,,,,,,,2,america,spain,,,,,,,,,,,,,,,,"[""lshift"",""rshift""]","[2.3683999999998946,2.8512000000001763]",0,11,11,35,1,1
075,001,2023-10-12_11h13.11.698,exp_g2,2022.2.5,MacIntel,60.0024001,,,,,,,,090,l1,f,sp,na,audio/090.wav,,l1_f_sp_na_090,,,,,,,image/america.png,image/spain.png,,,,,,,,,,,2,america,spain,,,,,,,,,,,,,,,,"[""rshift""]",[2.1832999999998037],0,12,12,29,1,
075,001,2023-10-12_11h13.11.698,exp_g2,2022.2.5,MacIntel,60.0024001,,,,,,,,143,l2,t,es,f0u,audio/143.wav,,l2_t_es_f0u_143,,,,,,,image/america.png,image/spain.png,,,,,,,,,,,2,america,spain,,,,,,,,,,,,,,,,"[""lshift"",""rshift""]","[1.533699999999726,3.1345999999996366]",0,13,13,47,1,1
075,001,2023-10-12_11h13.11.698,exp_g2,2022.2.5,MacIntel,60.0024001,,,,,,,,067,l1,f,en,na,audio/067.wav,,l1_f_en_na_067,,,,,,,image/america.png,image/spain.png,,,,,,,,,,,2,america,spain,,,,,,,,,,,,,,,,"[""lshift""]",[2.4536000000000513],0,14,14,6,1,
075,001,2023-10-12_11h13.11.698,exp_g2,2022.2.5,MacIntel,60.0024001,,,,,,,,079,l1,f,se,na,audio/079.wav,,l1_f_se_na_079,,,,,,,image/america.png,image/spain.png,,,,,,,,,,,2,america,spain,,,,,,,,,,,,,,,,"[""rshift"",""lshift"",""rshift""]","[2.0674999999999955,3.334599999999682,4.301000000000045]",0,15,15,18,1,1
075,001,2023-10-12_11h13.11.698,exp_g2,2022.2.5,MacIntel,60.0024001,,,,,,,,013,l1,t,es,na,audio/013.wav,,l1_t_es_na_013,,,,,,,image/america.png,image/spain.png,,,,,,,,,,,2,america,spain,,,,,,,,,,,,,,,,"[""lshift"",""rshift""]","[4.033600000000092,4.582300000000259]",0,16,16,37,1,1
075,001,2023-10-12_11h13.11.698,exp_g2,2022.2.5,MacIntel,60.0024001,,,,,,,,014,l1,t,es,na,audio/014.wav,,l1_t_es_na_014,,,,,,,image/america.png,image/spain.png,,,,,,,,,,,2,america,spain,,,,,,,,,,,,,,,,"[""lshift"",""rshift""]","[2.1340000000000146,2.5868999999999005]",0,17,17,38,1,1
075,001,2023-10-12_11h13.11.698,exp_g2,2022.2.5,MacIntel,60.0024001,,,,,,,,064,l1,f,en,na,audio/064.wav,,l1_f_en_na_064,,,,,,,image/america.png,image/spain.png,,,,,,,,,,,2,america,spain,,,,,,,,,,,,,,,,"[""lshift""]",[1.1676000000001068],0,18,18,3,1,
075,001,2023-10-12_11h13.11.698,exp_g2,2022.2.5,MacIntel,60.0024001,,,,,,,,071,l1,f,en,na,audio/071.wav,,l1_f_en_na_071,,,,,,,image/america.png,image/spain.png,,,,,,,,,,,2,america,spain,,,,,,,,,,,,,,,,"[""lshift""]",[1.5874999999999773],0,19,19,10,1,
075,001,2023-10-12_11h13.11.698,exp_g2,2022.2.5,MacIntel,60.0024001,,,,,,,,020,l1,t,es,na,audio/020.wav,,l1_t_es_na_020,,,,,,,image/america.png,image/spain.png,,,,,,,,,,,2,america,spain,,,,,,,,,,,,,,,,"[""lshift"",""rshift""]","[2.4017999999998665,3.134100000000103]",0,20,20,44,1,1
075,001,2023-10-12_11h13.11.698,exp_g2,2022.2.5,MacIntel,60.0024001,,,,,,,,141,l2,t,es,f0u,audio/141.wav,,l2_t_es_f0u_141,,,,,,,image/america.png,image/spain.png,,,,,,,,,,,2,america,spain,,,,,,,,,,,,,,,,"[""lshift"",""rshift""]","[3.2353999999999132,3.7843999999998914]",0,21,21,45,1,1
075,001,2023-10-12_11h13.11.698,exp_g2,2022.2.5,MacIntel,60.0024001,,,,,,,,083,l1,f,se,na,audio/083.wav,,l1_f_se_na_083,,,,,,,image/america.png,image/spain.png,,,,,,,,,,,2,america,spain,,,,,,,,,,,,,,,,"[""rshift"",""lshift"",""rshift""]","[2.1761000000000195,2.8177000000001726,3.3191000000000486]",0,22,22,22,1,1
075,001,2023-10-12_11h13.11.698,exp_g2,2022.2.5,MacIntel,60.0024001,,,,,,,,065,l1,f,en,na,audio/065.wav,,l1_f_en_na_065,,,,,,,image/america.png,image/spain.png,,,,,,,,,,,2,america,spain,,,,,,,,,,,,,,,,"[""lshift""]",[1.8730999999996811],0,23,23,4,1,
075,001,2023-10-12_11h13.11.698,exp_g2,2022.2.5,MacIntel,60.0024001,,,,,,,,070,l1,f,en,na,audio/070.wav,,l1_f_en_na_070,,,,,,,image/america.png,image/spain.png,,,,,,,,,,,2,america,spain,,,,,,,,,,,,,,,,"[""lshift""]",[2.857199999999807],0,24,24,9,1,
075,001,2023-10-12_11h13.11.698,exp_g2,2022.2.5,MacIntel,60.0024001,,,,,,,,061,l1,f,en,na,audio/061.wav,,l1_f_en_na_061,,,,,,,image/america.png,image/spain.png,,,,,,,,,,,2,america,spain,,,,,,,,,,,,,,,,"[""lshift""]",[2.0515000000000327],0,25,25,0,1,
075,001,2023-10-12_11h13.11.698,exp_g2,2022.2.5,MacIntel,60.0024001,,,,,,,,086,l1,f,sp,na,audio/086.wav,,l1_f_sp_na_086,,,,,,,image/america.png,image/spain.png,,,,,,,,,,,2,america,spain,,,,,,,,,,,,,,,,"[""rshift""]",[2.16700000000003],0,26,26,25,1,
075,001,2023-10-12_11h13.11.698,exp_g2,2022.2.5,MacIntel,60.0024001,,,,,,,,088,l1,f,sp,na,audio/088.wav,,l1_f_sp_na_088,,,,,,,image/america.png,image/spain.png,,,,,,,,,,,2,america,spain,,,,,,,,,,,,,,,,"[""rshift""]",[2.083799999999769],0,27,27,27,1,
075,001,2023-10-12_11h13.11.698,exp_g2,2022.2.5,MacIntel,60.0024001,,,,,,,,148,l2,t,es,f0u,audio/148.wav,,l2_t_es_f0u_148,,,,,,,image/america.png,image/spain.png,,,,,,,,,,,2,america,spain,,,,,,,,,,,,,,,,"[""lshift"",""rshift""]","[2.190299999999752,2.6016999999997097]",0,28,28,52,1,1
075,001,2023-10-12_11h13.11.698,exp_g2,2022.2.5,MacIntel,60.0024001,,,,,,,,091,l1,f,sp,na,audio/091.wav,,l1_f_sp_na_091,,,,,,,image/america.png,image/spain.png,,,,,,,,,,,2,america,spain,,,,,,,,,,,,,,,,"[""rshift""]",[1.9155999999996993],0,29,29,30,1,
075,001,2023-10-12_11h13.11.698,exp_g2,2022.2.5,MacIntel,60.0024001,,,,,,,,080,l1,f,se,na,audio/080.wav,,l1_f_se_na_080,,,,,,,image/america.png,image/spain.png,,,,,,,,,,,2,america,spain,,,,,,,,,,,,,,,,"[""rshift"",""lshift""]","[2.2684000000003834,4.485000000000014]",0,30,30,19,1,1
075,001,2023-10-12_11h13.11.698,exp_g2,2022.2.5,MacIntel,60.0024001,,,,,,,,075,l1,f,en,na,audio/075.wav,,l1_f_en_na_075,,,,,,,image/america.png,image/spain.png,,,,,,,,,,,2,america,spain,,,,,,,,,,,,,,,,"[""lshift""]",[2.367299999999773],0,31,31,14,1,
075,001,2023-10-12_11h13.11.698,exp_g2,2022.2.5,MacIntel,60.0024001,,,,,,,,087,l1,f,sp,na,audio/087.wav,,l1_f_sp_na_087,,,,,,,image/america.png,image/spain.png,,,,,,,,,,,2,america,spain,,,,,,,,,,,,,,,,"[""rshift""]",[2.750499999999988],0,32,32,26,1,
075,001,2023-10-12_11h13.11.698,exp_g2,2022.2.5,MacIntel,60.0024001,,,,,,,,073,l1,f,en,na,audio/073.wav,,l1_f_en_na_073,,,,,,,image/america.png,image/spain.png,,,,,,,,,,,2,america,spain,,,,,,,,,,,,,,,,"[""lshift""]",[2.4833000000003267],0,33,33,12,1,
075,001,2023-10-12_11h13.11.698,exp_g2,2022.2.5,MacIntel,60.0024001,,,,,,,,072,l1,f,en,na,audio/072.wav,,l1_f_en_na_072,,,,,,,image/america.png,image/spain.png,,,,,,,,,,,2,america,spain,,,,,,,,,,,,,,,,"[""lshift""]",[2.3161000000001195],0,34,34,11,1,
075,001,2023-10-12_11h13.11.698,exp_g2,2022.2.5,MacIntel,60.0024001,,,,,,,,063,l1,f,en,na,audio/063.wav,,l1_f_en_na_063,,,,,,,image/america.png,image/spain.png,,,,,,,,,,,2,america,spain,,,,,,,,,,,,,,,,"[""lshift""]",[1.9028999999998177],0,35,35,2,1,
075,001,2023-10-12_11h13.11.698,exp_g2,2022.2.5,MacIntel,60.0024001,,,,,,,,093,l1,f,sp,na,audio/093.wav,,l1_f_sp_na_093,,,,,,,image/america.png,image/spain.png,,,,,,,,,,,2,america,spain,,,,,,,,,,,,,,,,"[""rshift""]",[2.133000000000038],0,36,36,32,1,
075,001,2023-10-12_11h13.11.698,exp_g2,2022.2.5,MacIntel,60.0024001,,,,,,,,085,l1,f,se,na,audio/085.wav,,l1_f_se_na_085,,,,,,,image/america.png,image/spain.png,,,,,,,,,,,2,america,spain,,,,,,,,,,,,,,,,"[""rshift"",""rshift"",""lshift""]","[2.634399999999914,2.9686999999996715,3.2694999999999936]",0,37,37,24,1,1
075,001,2023-10-12_11h13.11.698,exp_g2,2022.2.5,MacIntel,60.0024001,,,,,,,,017,l1,t,es,na,audio/017.wav,,l1_t_es_na_017,,,,,,,image/america.png,image/spain.png,,,,,,,,,,,2,america,spain,,,,,,,,,,,,,,,,"[""lshift"",""rshift""]","[2.800100000000157,3.300299999999879]",0,38,38,41,1,1
075,001,2023-10-12_11h13.11.698,exp_g2,2022.2.5,MacIntel,60.0024001,,,,,,,,150,l2,t,es,f0u,audio/150.wav,,l2_t_es_f0u_150,,,,,,,image/america.png,image/spain.png,,,,,,,,,,,2,america,spain,,,,,,,,,,,,,,,,"[""lshift"",""rshift""]","[2.400100000000066,2.940100000000143]",0,39,39,54,1,1
075,001,2023-10-12_11h13.11.698,exp_g2,2022.2.5,MacIntel,60.0024001,,,,,,,,092,l1,f,sp,na,audio/092.wav,,l1_f_sp_na_092,,,,,,,image/america.png,image/spain.png,,,,,,,,,,,2,america,spain,,,,,,,,,,,,,,,,"[""rshift""]",[2.732399999999984],0,40,40,31,1,
075,001,2023-10-12_11h13.11.698,exp_g2,2022.2.5,MacIntel,60.0024001,,,,,,,,019,l1,t,es,na,audio/019.wav,,l1_t_es_na_019,,,,,,,image/america.png,image/spain.png,,,,,,,,,,,2,america,spain,,,,,,,,,,,,,,,,"[""lshift"",""rshift""]","[2.858500000000049,3.451799999999821]",0,41,41,43,1,1
075,001,2023-10-12_11h13.11.698,exp_g2,2022.2.5,MacIntel,60.0024001,,,,,,,,149,l2,t,es,f0u,audio/149.wav,,l2_t_es_f0u_149,,,,,,,image/america.png,image/spain.png,,,,,,,,,,,2,america,spain,,,,,,,,,,,,,,,,"[""lshift"",""rshift""]","[2.7690999999996393,3.2856999999996788]",0,42,42,53,1,1
075,001,2023-10-12_11h13.11.698,exp_g2,2022.2.5,MacIntel,60.0024001,,,,,,,,142,l2,t,es,f0u,audio/142.wav,,l2_t_es_f0u_142,,,,,,,image/america.png,image/spain.png,,,,,,,,,,,2,america,spain,,,,,,,,,,,,,,,,"[""lshift"",""rshift""]","[2.4201999999996815,2.970399999999927]",0,43,43,46,1,1
075,001,2023-10-12_11h13.11.698,exp_g2,2022.2.5,MacIntel,60.0024001,,,,,,,,094,l1,f,sp,na,audio/094.wav,,l1_f_sp_na_094,,,,,,,image/america.png,image/spain.png,,,,,,,,,,,2,america,spain,,,,,,,,,,,,,,,,"[""rshift""]",[3.069200000000137],0,44,44,33,1,
075,001,2023-10-12_11h13.11.698,exp_g2,2022.2.5,MacIntel,60.0024001,,,,,,,,078,l1,f,se,na,audio/078.wav,,l1_f_se_na_078,,,,,,,image/america.png,image/spain.png,,,,,,,,,,,2,america,spain,,,,,,,,,,,,,,,,"[""rshift"",""lshift""]","[2.4007000000001426,3.1181000000000267]",0,45,45,17,1,1
075,001,2023-10-12_11h13.11.698,exp_g2,2022.2.5,MacIntel,60.0024001,,,,,,,,147,l2,t,es,f0u,audio/147.wav,,l2_t_es_f0u_147,,,,,,,image/america.png,image/spain.png,,,,,,,,,,,2,america,spain,,,,,,,,,,,,,,,,"[""lshift"",""rshift""]","[2.7161000000000968,3.1493000000002667]",0,46,46,51,1,1
075,001,2023-10-12_11h13.11.698,exp_g2,2022.2.5,MacIntel,60.0024001,,,,,,,,062,l1,f,en,na,audio/062.wav,,l1_f_en_na_062,,,,,,,image/america.png,image/spain.png,,,,,,,,,,,2,america,spain,,,,,,,,,,,,,,,,"[""lshift""]",[2.2347999999998365],0,47,47,1,1,
075,001,2023-10-12_11h13.11.698,exp_g2,2022.2.5,MacIntel,60.0024001,,,,,,,,077,l1,f,se,na,audio/077.wav,,l1_f_se_na_077,,,,,,,image/america.png,image/spain.png,,,,,,,,,,,2,america,spain,,,,,,,,,,,,,,,,"[""rshift"",""lshift""]","[2.5363000000002103,3.1358999999998787]",0,48,48,16,1,1
075,001,2023-10-12_11h13.11.698,exp_g2,2022.2.5,MacIntel,60.0024001,,,,,,,,018,l1,t,es,na,audio/018.wav,,l1_t_es_na_018,,,,,,,image/america.png,image/spain.png,,,,,,,,,,,2,america,spain,,,,,,,,,,,,,,,,"[""lshift"",""rshift""]","[3.5500999999995884,3.9750000000000227]",0,49,49,42,1,1
075,001,2023-10-12_11h13.11.698,exp_g2,2022.2.5,MacIntel,60.0024001,,,,,,,,145,l2,t,es,f0u,audio/145.wav,,l2_t_es_f0u_145,,,,,,,image/america.png,image/spain.png,,,,,,,,,,,2,america,spain,,,,,,,,,,,,,,,,"[""lshift"",""rshift""]","[2.7011999999997443,3.1351999999997133]",0,50,50,49,1,1
075,001,2023-10-12_11h13.11.698,exp_g2,2022.2.5,MacIntel,60.0024001,,,,,,,,012,l1,t,es,na,audio/012.wav,,l1_t_es_na_012,,,,,,,image/america.png,image/spain.png,,,,,,,,,,,2,america,spain,,,,,,,,,,,,,,,,"[""lshift"",""rshift""]","[3.3018000000002985,3.773400000000379]",0,51,51,36,1,1
075,001,2023-10-12_11h13.11.698,exp_g2,2022.2.5,MacIntel,60.0024001,,,,,,,,069,l1,f,en,na,audio/069.wav,,l1_f_en_na_069,,,,,,,image/america.png,image/spain.png,,,,,,,,,,,2,america,spain,,,,,,,,,,,,,,,,"[""lshift""]",[1.9696000000001277],0,52,52,8,1,
075,001,2023-10-12_11h13.11.698,exp_g2,2022.2.5,MacIntel,60.0024001,,,,,,,,016,l1,t,es,na,audio/016.wav,,l1_t_es_na_016,,,,,,,image/america.png,image/spain.png,,,,,,,,,,,2,america,spain,,,,,,,,,,,,,,,,"[""lshift"",""rshift""]","[3.2003000000003112,3.665300000000343]",0,53,53,40,1,1
075,001,2023-10-12_11h13.11.698,exp_g2,2022.2.5,MacIntel,60.0024001,,,,,,,,081,l1,f,se,na,audio/081.wav,,l1_f_se_na_081,,,,,,,image/america.png,image/spain.png,,,,,,,,,,,2,america,spain,,,,,,,,,,,,,,,,"[""rshift"",""lshift""]","[2.9162999999998647,3.4506000000001222]",0,54,54,20,1,1
075,001,2023-10-12_11h13.11.698,exp_g2,2022.2.5,MacIntel,60.0024001,,,,,,,,,,,,,,,,,,,,,,,,,,,,,,,,,,,,,,,,,,,,,,,,,,,,,,,,,,,
