participant,session,date,expName,psychopyVersion,OS,frameRate,exp1_trial_key.keys,exp1_trial_key.rt,exp1_trial_loop.thisRepN,exp1_trial_loop.thisTrialN,exp1_trial_loop.thisN,exp1_trial_loop.thisIndex,exp1_trial_loop.ran,num,list,cond,lang,type,sound_dir,phr,sent_code,mat,mat_num,emb_num,emb,cut,mat_f0_c,left,right,correct_img,correct_key,exp1_key.keys,exp1_key.corr,exp1_key.rt,exp1_loop.thisRepN,exp1_loop.thisTrialN,exp1_loop.thisN,exp1_loop.thisIndex,exp1_loop.ran,exp_num,image,image_alt,left_img,right_img,image_dir,exp2_trial_key.keys,exp2_trial_key.rt,exp2_trial_loop.thisRepN,exp2_trial_loop.thisTrialN,exp2_trial_loop.thisN,exp2_trial_loop.thisIndex,exp2_trial_loop.ran,exp2_key.keys,exp2_key.rt,exp2_loop.thisRepN,exp2_loop.thisTrialN,exp2_loop.thisN,exp2_loop.thisIndex,exp2_loop.ran,cs
091,001,2023-09-14_12h03.00.504,exp_g2,2022.2.5,MacIntel,60.0024001,,,,,,,,,,,,,,,,,,,,,,,,,,,,,,,,,,,,,,,,,,,,,,,,,,,,,,
091,001,2023-09-14_12h03.00.504,exp_g2,2022.2.5,MacIntel,60.0024001,"[""lshift""]",[2.407299999952315],0,0,0,0,1,tr1,lt,tr,en,na,practice_trial/audio/tr1.wav,Where are your kids?,lt_tr_en_na_tr1,-,-,-,-,-,-,image/kids.png,image/plates.png,kids,lshift,,,,,,,,,,,,,,,,,,,,,,,,,,,,,
091,001,2023-09-14_12h03.00.504,exp_g2,2022.2.5,MacIntel,60.0024001,"[""rshift""]",[2.243200000047679],0,1,1,1,1,tr2,lt,tr,en,na,practice_trial/audio/tr2.wav,Who is buying my car?,lt_tr_en_na_tr2,-,-,-,-,-,-,image/bag.png,image/car.png,car,rshift,,,,,,,,,,,,,,,,,,,,,,,,,,,,,
091,001,2023-09-14_12h03.00.504,exp_g2,2022.2.5,MacIntel,60.0024001,"[""lshift""]",[1.936200000047691],0,2,2,2,1,tr3,lt,tr,sp,na,practice_trial/audio/tr3.wav,¿Dónde está mi perro?,lt_tr_sp_na_tr3,-,-,-,-,-,-,image/dog.png,image/grandma.png,dog,lshift,,,,,,,,,,,,,,,,,,,,,,,,,,,,,
091,001,2023-09-14_12h03.00.504,exp_g2,2022.2.5,MacIntel,60.0024001,"[""rshift""]",[2.680600000143059],0,3,3,3,1,tr4,lt,tr,sp,na,practice_trial/audio/tr4.wav,¿De quién es la bolsa?,lt_tr_sp_na_tr4,-,-,-,-,-,-,image/shirt.png,image/bag.png,bag,rshift,,,,,,,,,,,,,,,,,,,,,,,,,,,,,
091,001,2023-09-14_12h03.00.504,exp_g2,2022.2.5,MacIntel,60.0024001,"[""lshift""]",[2.951100000143043],0,4,4,4,1,tr5,lt,tr,se,na,practice_trial/audio/tr5.wav,¿Dónde encontraste sus donuts?,lt_tr_se_na_tr5,-,-,-,-,-,-,image/donut.png,image/cups.png,donut,lshift,,,,,,,,,,,,,,,,,,,,,,,,,,,,,
091,001,2023-09-14_12h03.00.504,exp_g2,2022.2.5,MacIntel,60.0024001,"[""rshift""]",[2.4773999998569423],0,5,5,5,1,tr6,lt,tr,se,na,practice_trial/audio/tr6.wav,¿Cuándo compraste tu sweater?,lt_tr_se_na_tr6,-,-,-,-,-,-,image/chair.png,image/sweater.png,sweater,rshift,,,,,,,,,,,,,,,,,,,,,,,,,,,,,
091,001,2023-09-14_12h03.00.504,exp_g2,2022.2.5,MacIntel,60.0024001,"[""lshift""]",[2.8304000000953664],0,6,6,6,1,tr7,lt,tr,es,na,practice_trial/audio/tr7.wav,Why do you have my camisa?,lt_tr_es_na_tr7,-,-,-,-,-,-,image/shirt.png,image/wallet.png,shirt,lshift,,,,,,,,,,,,,,,,,,,,,,,,,,,,,
091,001,2023-09-14_12h03.00.504,exp_g2,2022.2.5,MacIntel,60.0024001,"[""rshift""]",[2.353900000095365],0,7,7,7,1,tr8,lt,tr,es,na,practice_trial/audio/tr8.wav,Where did you find his chanclas?,lt_tr_es_na_tr8,-,-,-,-,-,-,image/key.png,image/flipflops.png,flipflops,rshift,,,,,,,,,,,,,,,,,,,,,,,,,,,,,
091,001,2023-09-14_12h03.00.504,exp_g2,2022.2.5,MacIntel,60.0024001,,,,,,,,,,,,,,,,,,,,,,,,,,,,,,,,,,,,,,,,,,,,,,,,,,,,,,
091,001,2023-09-14_12h03.00.504,exp_g2,2022.2.5,MacIntel,60.0024001,,,,,,,,096,l2,f,en,na,audio/096.wav,,l2_f_en_na_096,,,,,,,image/woman.png,image/cat.png,cat,rshift,rshift,1,2.0939,0,0,0,0,1,1,cat,woman,woman,cat,image/,,,,,,,,,,,,,,,
091,001,2023-09-14_12h03.00.504,exp_g2,2022.2.5,MacIntel,60.0024001,,,,,,,,106,l2,f,en,na,audio/106.wav,,l2_f_en_na_106,,,,,,,image/wallet.png,image/computer.png,computer,rshift,rshift,1,2.5917,0,1,1,10,1,1,computer,wallet,wallet,computer,,,,,,,,,,,,,,,,
091,001,2023-09-14_12h03.00.504,exp_g2,2022.2.5,MacIntel,60.0024001,,,,,,,,150,l2,t,es,f0u,audio/150.wav,,l2_t_es_f0u_150,,,,,,,image/cat.png,image/key.png,key,rshift,rshift,1,2.2625,0,2,2,54,1,1,key,cat,cat,key,,,,,,,,,,,,,,,,
091,001,2023-09-14_12h03.00.504,exp_g2,2022.2.5,MacIntel,60.0024001,,,,,,,,147,l2,t,es,f0u,audio/147.wav,,l2_t_es_f0u_147,,,,,,,image/truck.png,image/book.png,truck,lshift,lshift,1,3.06,0,3,3,51,1,1,truck,book,truck,book,,,,,,,,,,,,,,,,
091,001,2023-09-14_12h03.00.504,exp_g2,2022.2.5,MacIntel,60.0024001,,,,,,,,025,l2,t,es,na,audio/025.wav,,l2_t_es_na_025,,,,,,,image/cellphone.png,image/truck.png,cellphone,lshift,lshift,1,2.3718,0,4,4,39,1,1,cellphone,truck,cellphone,truck,,,,,,,,,,,,,,,,
091,001,2023-09-14_12h03.00.504,exp_g2,2022.2.5,MacIntel,60.0024001,,,,,,,,023,l2,t,es,na,audio/023.wav,,l2_t_es_na_023,,,,,,,image/wine.png,image/cellphone.png,wine,lshift,lshift,1,1.9942,0,5,5,37,1,1,wine,cellphone,wine,cellphone,,,,,,,,,,,,,,,,
091,001,2023-09-14_12h03.00.504,exp_g2,2022.2.5,MacIntel,60.0024001,,,,,,,,114,l2,f,se,na,audio/114.wav,,l2_f_se_na_114,,,,,,,image/jeans.png,image/sweatpants.png,sweatpants,rshift,lshift,0,2.0691,0,6,6,18,1,1,sweatpants,jeans,jeans,sweatpants,,,,,,,,,,,,,,,,
091,001,2023-09-14_12h03.00.504,exp_g2,2022.2.5,MacIntel,60.0024001,,,,,,,,121,l2,f,sp,na,audio/121.wav,,l2_f_sp_na_121,,,,,,,image/shoe.png,image/glasses.png,shoe,lshift,lshift,1,2.0599,0,7,7,25,1,1,shoe,glasses,shoe,glasses,,,,,,,,,,,,,,,,
091,001,2023-09-14_12h03.00.504,exp_g2,2022.2.5,MacIntel,60.0024001,,,,,,,,110,l2,f,en,na,audio/110.wav,,l2_f_en_na_110,,,,,,,image/dog.png,image/cat.png,cat,rshift,rshift,1,2.1783,0,8,8,14,1,1,cat,dog,dog,cat,,,,,,,,,,,,,,,,
091,001,2023-09-14_12h03.00.504,exp_g2,2022.2.5,MacIntel,60.0024001,,,,,,,,112,l2,f,se,na,audio/112.wav,,l2_f_se_na_112,,,,,,,image/burger.png,image/hotdog.png,hotdog,rshift,rshift,1,2.3079,0,9,9,16,1,1,hotdog,burger,burger,hotdog,,,,,,,,,,,,,,,,
091,001,2023-09-14_12h03.00.504,exp_g2,2022.2.5,MacIntel,60.0024001,,,,,,,,022,l2,t,es,na,audio/022.wav,,l2_t_es_na_022,,,,,,,image/dog.png,image/cat.png,cat,rshift,rshift,1,2.2127,0,10,10,36,1,1,cat,dog,dog,cat,,,,,,,,,,,,,,,,
091,001,2023-09-14_12h03.00.504,exp_g2,2022.2.5,MacIntel,60.0024001,,,,,,,,113,l2,f,se,na,audio/113.wav,,l2_f_se_na_113,,,,,,,image/loafers.png,image/sneakers.png,loafers,lshift,lshift,1,1.9896,0,11,11,17,1,1,loafers,sneakers,loafers,sneakers,,,,,,,,,,,,,,,,
091,001,2023-09-14_12h03.00.504,exp_g2,2022.2.5,MacIntel,60.0024001,,,,,,,,122,l2,f,sp,na,audio/122.wav,,l2_f_sp_na_122,,,,,,,image/desk.png,image/chair.png,chair,rshift,lshift,0,2.4625,0,12,12,26,1,1,chair,desk,desk,chair,,,,,,,,,,,,,,,,
091,001,2023-09-14_12h03.00.504,exp_g2,2022.2.5,MacIntel,60.0024001,,,,,,,,104,l2,f,en,na,audio/104.wav,,l2_f_en_na_104,,,,,,,image/shirt.png,image/bag.png,bag,rshift,rshift,1,1.8791,0,13,13,8,1,1,bag,shirt,shirt,bag,,,,,,,,,,,,,,,,
091,001,2023-09-14_12h03.00.504,exp_g2,2022.2.5,MacIntel,60.0024001,,,,,,,,027,l2,t,es,na,audio/027.wav,,l2_t_es_na_027,,,,,,,image/shirt.png,image/book.png,shirt,lshift,lshift,1,2.3225,0,14,14,41,1,1,shirt,book,shirt,book,,,,,,,,,,,,,,,,
091,001,2023-09-14_12h03.00.504,exp_g2,2022.2.5,MacIntel,60.0024001,,,,,,,,128,l2,f,sp,na,audio/128.wav,,l2_f_sp_na_128,,,,,,,image/cups.png,image/kids.png,kids,rshift,rshift,1,2.0232,0,15,15,32,1,1,kids,cups,cups,kids,,,,,,,,,,,,,,,,
091,001,2023-09-14_12h03.00.504,exp_g2,2022.2.5,MacIntel,60.0024001,,,,,,,,143,l2,t,es,f0u,audio/143.wav,,l2_t_es_f0u_143,,,,,,,image/horchata.png,image/beer.png,horchata,lshift,lshift,1,3.3077,0,16,16,47,1,1,horchata,beer,horchata,beer,,,,,,,,,,,,,,,,
091,001,2023-09-14_12h03.00.504,exp_g2,2022.2.5,MacIntel,60.0024001,,,,,,,,029,l2,t,es,na,audio/029.wav,,l2_t_es_na_029,,,,,,,image/armchair.png,image/ring.png,armchair,lshift,rshift,0,3.1237,0,17,17,43,1,1,armchair,ring,armchair,ring,,,,,,,,,,,,,,,,
091,001,2023-09-14_12h03.00.504,exp_g2,2022.2.5,MacIntel,60.0024001,,,,,,,,115,l2,f,se,na,audio/115.wav,,l2_f_se_na_115,,,,,,,image/notebook.png,image/cellphone.png,notebook,lshift,lshift,1,2.3101,0,18,18,19,1,1,notebook,cellphone,notebook,cellphone,,,,,,,,,,,,,,,,
091,001,2023-09-14_12h03.00.504,exp_g2,2022.2.5,MacIntel,60.0024001,,,,,,,,101,l2,f,en,na,audio/101.wav,,l2_f_en_na_101,,,,,,,image/computer.png,image/bag.png,computer,lshift,lshift,1,2.3657,0,19,19,5,1,1,computer,bag,computer,bag,,,,,,,,,,,,,,,,
091,001,2023-09-14_12h03.00.504,exp_g2,2022.2.5,MacIntel,60.0024001,,,,,,,,146,l2,t,es,f0u,audio/146.wav,,l2_t_es_f0u_146,,,,,,,image/cellphone.png,image/flipflops.png,flipflops,rshift,rshift,1,2.9649,0,20,20,50,1,1,flipflops,cellphone,cellphone,flipflops,,,,,,,,,,,,,,,,
091,001,2023-09-14_12h03.00.504,exp_g2,2022.2.5,MacIntel,60.0024001,,,,,,,,118,l2,f,se,na,audio/118.wav,,l2_f_se_na_118,,,,,,,image/icecream.png,image/donut.png,donut,rshift,rshift,1,1.8434,0,21,21,22,1,1,donut,icecream,icecream,donut,,,,,,,,,,,,,,,,
091,001,2023-09-14_12h03.00.504,exp_g2,2022.2.5,MacIntel,60.0024001,,,,,,,,100,l2,f,en,na,audio/100.wav,,l2_f_en_na_100,,,,,,,image/wallet.png,image/scarf.png,scarf,rshift,rshift,1,1.4305,0,22,22,4,1,1,scarf,wallet,wallet,scarf,,,,,,,,,,,,,,,,
091,001,2023-09-14_12h03.00.504,exp_g2,2022.2.5,MacIntel,60.0024001,,,,,,,,102,l2,f,en,na,audio/102.wav,,l2_f_en_na_102,,,,,,,image/socks.png,image/book.png,books,rshift,lshift,0,2.1492,0,23,23,6,1,1,books,socks,socks,book,,,,,,,,,,,,,,,,
091,001,2023-09-14_12h03.00.504,exp_g2,2022.2.5,MacIntel,60.0024001,,,,,,,,125,l2,f,sp,na,audio/125.wav,,l2_f_sp_na_125,,,,,,,image/desk.png,image/bottle.png,desk,lshift,lshift,1,2.4737,0,24,24,29,1,1,desk,bottle,desk,bottle,,,,,,,,,,,,,,,,
091,001,2023-09-14_12h03.00.504,exp_g2,2022.2.5,MacIntel,60.0024001,,,,,,,,116,l2,f,se,na,audio/116.wav,,l2_f_se_na_116,,,,,,,image/sweatpants.png,image/boxers.png,boxers,rshift,rshift,1,2.3951,0,25,25,20,1,1,boxers,sweatpants,sweatpants,boxers,,,,,,,,,,,,,,,,
091,001,2023-09-14_12h03.00.504,exp_g2,2022.2.5,MacIntel,60.0024001,,,,,,,,127,l2,f,sp,na,audio/127.wav,,l2_f_sp_na_127,,,,,,,image/cat.png,image/dog.png,cat,lshift,lshift,1,1.7478,0,26,26,31,1,1,cat,dog,cat,dog,,,,,,,,,,,,,,,,
091,001,2023-09-14_12h03.00.504,exp_g2,2022.2.5,MacIntel,60.0024001,,,,,,,,097,l2,f,en,na,audio/097.wav,,l2_f_en_na_097,,,,,,,image/ring.png,image/belt.png,ring,lshift,lshift,1,1.9441,0,27,27,1,1,1,ring,belt,ring,belt,,,,,,,,,,,,,,,,
091,001,2023-09-14_12h03.00.504,exp_g2,2022.2.5,MacIntel,60.0024001,,,,,,,,103,l2,f,en,na,audio/103.wav,,l2_f_en_na_103,,,,,,,image/toys.png,image/sneakers.png,toys,lshift,lshift,1,1.9735,0,28,28,7,1,1,toys,sneakers,toys,sneakers,,,,,,,,,,,,,,,,
091,001,2023-09-14_12h03.00.504,exp_g2,2022.2.5,MacIntel,60.0024001,,,,,,,,109,l2,f,en,na,audio/109.wav,,l2_f_en_na_109,,,,,,,image/fish.png,image/woman.png,fish,lshift,lshift,1,1.6449,0,29,29,13,1,1,fish,woman,fish,woman,,,,,,,,,,,,,,,,
091,001,2023-09-14_12h03.00.504,exp_g2,2022.2.5,MacIntel,60.0024001,,,,,,,,021,l2,t,es,na,audio/021.wav,,l2_t_es_na_021,,,,,,,image/jacket.png,image/flipflops.png,jacket,lshift,lshift,1,2.007,0,30,30,35,1,1,jacket,flipflops,jacket,flipflops,,,,,,,,,,,,,,,,
091,001,2023-09-14_12h03.00.504,exp_g2,2022.2.5,MacIntel,60.0024001,,,,,,,,145,l2,t,es,f0u,audio/145.wav,,l2_t_es_f0u_145,,,,,,,image/bag.png,image/flower.png,bag,lshift,lshift,1,2.0656,0,31,31,49,1,1,bag,flower,bag,flower,,,,,,,,,,,,,,,,
091,001,2023-09-14_12h03.00.504,exp_g2,2022.2.5,MacIntel,60.0024001,,,,,,,,098,l2,f,en,na,audio/098.wav,,l2_f_en_na_098,,,,,,,image/man.png,image/woman.png,woman,rshift,rshift,1,2.0133,0,32,32,2,1,1,woman,man,man,woman,,,,,,,,,,,,,,,,
091,001,2023-09-14_12h03.00.504,exp_g2,2022.2.5,MacIntel,60.0024001,,,,,,,,144,l2,t,es,f0u,audio/144.wav,,l2_t_es_f0u_144,,,,,,,image/bracelet.png,image/backpack.png,backpack,rshift,rshift,1,2.2461,0,33,33,48,1,1,backpack,bracelet,bracelet,backpack,,,,,,,,,,,,,,,,
091,001,2023-09-14_12h03.00.504,exp_g2,2022.2.5,MacIntel,60.0024001,,,,,,,,105,l2,f,en,na,audio/105.wav,,l2_f_en_na_105,,,,,,,image/bed.png,image/plane.png,bed,lshift,lshift,1,1.8509,0,34,34,9,1,1,bed,plane,bed,plane,,,,,,,,,,,,,,,,
091,001,2023-09-14_12h03.00.504,exp_g2,2022.2.5,MacIntel,60.0024001,,,,,,,,030,l2,t,es,na,audio/030.wav,,l2_t_es_na_030,,,,,,,image/flipflops.png,image/boy.png,boy,rshift,rshift,1,2.6993,0,35,35,44,1,1,boy,flipflops,flipflops,boy,,,,,,,,,,,,,,,,
091,001,2023-09-14_12h03.00.504,exp_g2,2022.2.5,MacIntel,60.0024001,,,,,,,,099,l2,f,en,na,audio/099.wav,,l2_f_en_na_099,,,,,,,image/dog.png,image/cat.png,dog,lshift,lshift,1,1.5997,0,36,36,3,1,1,dog,cat,dog,cat,,,,,,,,,,,,,,,,
091,001,2023-09-14_12h03.00.504,exp_g2,2022.2.5,MacIntel,60.0024001,,,,,,,,129,l2,f,sp,na,audio/129.wav,,l2_f_sp_na_129,,,,,,,image/bag.png,image/chair.png,bag,lshift,lshift,1,2.8846,0,37,37,33,1,1,bag,chair,bag,chair,,,,,,,,,,,,,,,,
091,001,2023-09-14_12h03.00.504,exp_g2,2022.2.5,MacIntel,60.0024001,,,,,,,,130,l2,f,sp,na,audio/130.wav,,l2_f_sp_na_130,,,,,,,image/socks.png,image/glasses.png,glasses,rshift,lshift,0,1.9749,0,38,38,34,1,1,glasses,socks,socks,glasses,,,,,,,,,,,,,,,,
091,001,2023-09-14_12h03.00.504,exp_g2,2022.2.5,MacIntel,60.0024001,,,,,,,,126,l2,f,sp,na,audio/126.wav,,l2_f_sp_na_126,,,,,,,image/backpack.png,image/key.png,key,rshift,rshift,1,2.072,0,39,39,30,1,1,key,backpack,backpack,key,,,,,,,,,,,,,,,,
091,001,2023-09-14_12h03.00.504,exp_g2,2022.2.5,MacIntel,60.0024001,,,,,,,,148,l2,t,es,f0u,audio/148.wav,,l2_t_es_f0u_148,,,,,,,image/newspaper.png,image/cups.png,cups,rshift,rshift,1,2.3961,0,40,40,52,1,1,cups,newspaper,newspaper,cups,,,,,,,,,,,,,,,,
091,001,2023-09-14_12h03.00.504,exp_g2,2022.2.5,MacIntel,60.0024001,,,,,,,,107,l2,f,en,na,audio/107.wav,,l2_f_en_na_107,,,,,,,image/man.png,image/cat.png,man,lshift,lshift,1,2.1925,0,41,41,11,1,1,man,cat,man,cat,,,,,,,,,,,,,,,,
091,001,2023-09-14_12h03.00.504,exp_g2,2022.2.5,MacIntel,60.0024001,,,,,,,,026,l2,t,es,na,audio/026.wav,,l2_t_es_na_026,,,,,,,image/village.png,image/grandma.png,grandma,rshift,rshift,1,2.4206,0,42,42,40,1,1,grandma,village,village,grandma,,,,,,,,,,,,,,,,
091,001,2023-09-14_12h03.00.504,exp_g2,2022.2.5,MacIntel,60.0024001,,,,,,,,119,l2,f,se,na,audio/119.wav,,l2_f_se_na_119,,,,,,,image/penthouse.png,image/rocket.png,penthouse,lshift,lshift,1,2.5546,0,43,43,23,1,1,penthouse,rocket,penthouse,rocket,,,,,,,,,,,,,,,,
091,001,2023-09-14_12h03.00.504,exp_g2,2022.2.5,MacIntel,60.0024001,,,,,,,,123,l2,f,sp,na,audio/123.wav,,l2_f_sp_na_123,,,,,,,image/sweater.png,image/cellphone.png,sweater,lshift,lshift,1,1.9821,0,44,44,27,1,1,sweater,cellphone,sweater,cellphone,,,,,,,,,,,,,,,,
091,001,2023-09-14_12h03.00.504,exp_g2,2022.2.5,MacIntel,60.0024001,,,,,,,,142,l2,t,es,f0u,audio/142.wav,,l2_t_es_f0u_142,,,,,,,image/car.png,image/truck.png,truck,rshift,lshift,0,2.6196,0,45,45,46,1,1,truck,car,car,truck,,,,,,,,,,,,,,,,
091,001,2023-09-14_12h03.00.504,exp_g2,2022.2.5,MacIntel,60.0024001,,,,,,,,111,l2,f,se,na,audio/111.wav,,l2_f_se_na_111,,,,,,,image/mashedpotatoes.png,image/donut.png,mashedpotatoes,lshift,lshift,1,2.2178,0,46,46,15,1,1,mashedpotatoes,donut,mashedpotatoes,donut,,,,,,,,,,,,,,,,
091,001,2023-09-14_12h03.00.504,exp_g2,2022.2.5,MacIntel,60.0024001,,,,,,,,149,l2,t,es,f0u,audio/149.wav,,l2_t_es_f0u_149,,,,,,,image/boy.png,image/dog.png,boy,lshift,lshift,1,2.5612,0,47,47,53,1,1,boy,dog,boy,dog,,,,,,,,,,,,,,,,
091,001,2023-09-14_12h03.00.504,exp_g2,2022.2.5,MacIntel,60.0024001,,,,,,,,141,l2,t,es,f0u,audio/141.wav,,l2_t_es_f0u_141,,,,,,,image/dog.png,image/backpack.png,dog,lshift,lshift,1,2.1663,0,48,48,45,1,1,dog,backpack,dog,backpack,,,,,,,,,,,,,,,,
091,001,2023-09-14_12h03.00.504,exp_g2,2022.2.5,MacIntel,60.0024001,,,,,,,,120,l2,f,se,na,audio/120.wav,,l2_f_se_na_120,,,,,,,image/glasses.png,image/joycons.png,joycons,rshift,rshift,1,2.7113,0,49,49,24,1,1,joycons,glasses,glasses,joycons,,,,,,,,,,,,,,,,
091,001,2023-09-14_12h03.00.504,exp_g2,2022.2.5,MacIntel,60.0024001,,,,,,,,117,l2,f,se,na,audio/117.wav,,l2_f_se_na_117,,,,,,,image/spongebob.png,image/mickeymouse.png,spongebob,lshift,lshift,1,2.3879,0,50,50,21,1,1,spongebob,mickeymouse,spongebob,mickeymouse,,,,,,,,,,,,,,,,
091,001,2023-09-14_12h03.00.504,exp_g2,2022.2.5,MacIntel,60.0024001,,,,,,,,028,l2,t,es,na,audio/028.wav,,l2_t_es_na_028,,,,,,,image/pants.png,image/glasses.png,glasses,rshift,rshift,1,2.215,0,51,51,42,1,1,glasses,pants,pants,glasses,,,,,,,,,,,,,,,,
091,001,2023-09-14_12h03.00.504,exp_g2,2022.2.5,MacIntel,60.0024001,,,,,,,,108,l2,f,en,na,audio/108.wav,,l2_f_en_na_108,,,,,,,image/scarf.png,image/socks.png,socks,rshift,rshift,1,3.9452,0,52,52,12,1,1,socks,scarf,scarf,socks,,,,,,,,,,,,,,,,
091,001,2023-09-14_12h03.00.504,exp_g2,2022.2.5,MacIntel,60.0024001,,,,,,,,024,l2,t,es,na,audio/024.wav,,l2_t_es_na_024,,,,,,,image/bed.png,image/jug.png,jug,rshift,rshift,1,2.9091,0,53,53,38,1,1,jug,bed,bed,jug,,,,,,,,,,,,,,,,
091,001,2023-09-14_12h03.00.504,exp_g2,2022.2.5,MacIntel,60.0024001,,,,,,,,124,l2,f,sp,na,audio/124.wav,,l2_f_sp_na_124,,,,,,,image/bag.png,image/bed.png,bed,rshift,rshift,1,2.4184,0,54,54,28,1,1,bed,bag,bag,bed,,,,,,,,,,,,,,,,
091,001,2023-09-14_12h03.00.504,exp_g2,2022.2.5,MacIntel,60.0024001,,,,,,,,,,,,,,,,,,,,,,,,,,,,,,,,,,,,,,,,,,,,,,,,,,,,,,
091,001,2023-09-14_12h03.00.504,exp_g2,2022.2.5,MacIntel,60.0024001,,,,,,,,tr1,lt,tr,en,na,practice_trial/audio/tr1.wav,Where are your kids?,lt_tr_en_na_tr1,-,-,-,-,-,-,image/america.png,image/spain.png,,,,,,,,,,,,,,,,,"[""lshift""]",[1.503499999999974],0,0,0,0,1,,,,,,,,
091,001,2023-09-14_12h03.00.504,exp_g2,2022.2.5,MacIntel,60.0024001,,,,,,,,tr2,lt,tr,en,na,practice_trial/audio/tr2.wav,Who is buying my car?,lt_tr_en_na_tr2,-,-,-,-,-,-,image/america.png,image/spain.png,,,,,,,,,,,,,,,,,"[""lshift""]",[2.316500000000019],0,1,1,1,1,,,,,,,,
091,001,2023-09-14_12h03.00.504,exp_g2,2022.2.5,MacIntel,60.0024001,,,,,,,,tr3,lt,tr,sp,na,practice_trial/audio/tr3.wav,¿Dónde está mi perro?,lt_tr_sp_na_tr3,-,-,-,-,-,-,image/america.png,image/spain.png,,,,,,,,,,,,,,,,,"[""rshift""]",[1.8220999999046512],0,2,2,2,1,,,,,,,,
091,001,2023-09-14_12h03.00.504,exp_g2,2022.2.5,MacIntel,60.0024001,,,,,,,,tr4,lt,tr,sp,na,practice_trial/audio/tr4.wav,¿De quién es la bolsa?,lt_tr_sp_na_tr4,-,-,-,-,-,-,image/america.png,image/spain.png,,,,,,,,,,,,,,,,,"[""rshift""]",[1.6380000000000337],0,3,3,3,1,,,,,,,,
091,001,2023-09-14_12h03.00.504,exp_g2,2022.2.5,MacIntel,60.0024001,,,,,,,,tr5,lt,tr,se,na,practice_trial/audio/tr5.wav,¿Dónde encontraste sus donuts?,lt_tr_se_na_tr5,-,-,-,-,-,-,image/america.png,image/spain.png,,,,,,,,,,,,,,,,,"[""rshift""]",[1.276099999904659],0,4,4,4,1,,,,,,,,
091,001,2023-09-14_12h03.00.504,exp_g2,2022.2.5,MacIntel,60.0024001,,,,,,,,tr6,lt,tr,se,na,practice_trial/audio/tr6.wav,¿Cuándo compraste tu sweater?,lt_tr_se_na_tr6,-,-,-,-,-,-,image/america.png,image/spain.png,,,,,,,,,,,,,,,,,"[""rshift""]",[1.4028999998569134],0,5,5,5,1,,,,,,,,
091,001,2023-09-14_12h03.00.504,exp_g2,2022.2.5,MacIntel,60.0024001,,,,,,,,tr7,lt,tr,es,na,practice_trial/audio/tr7.wav,Why do you have my camisa?,lt_tr_es_na_tr7,-,-,-,-,-,-,image/america.png,image/spain.png,,,,,,,,,,,,,,,,,"[""lshift"",""rshift""]","[1.3185999999046203,2.0575000000000045]",0,6,6,6,1,,,,,,,,
091,001,2023-09-14_12h03.00.504,exp_g2,2022.2.5,MacIntel,60.0024001,,,,,,,,tr8,lt,tr,es,na,practice_trial/audio/tr8.wav,Where did you find his chanclas?,lt_tr_es_na_tr8,-,-,-,-,-,-,image/america.png,image/spain.png,,,,,,,,,,,,,,,,,"[""lshift"",""rshift""]","[1.4675000000000296,2.0049999999999955]",0,7,7,7,1,,,,,,,,
091,001,2023-09-14_12h03.00.504,exp_g2,2022.2.5,MacIntel,60.0024001,,,,,,,,,,,,,,,,,,,,,,,,,,,,,,,,,,,,,,,,,,,,,,,,,,,,,,
091,001,2023-09-14_12h03.00.504,exp_g2,2022.2.5,MacIntel,60.0024001,,,,,,,,013,l1,t,es,na,audio/013.wav,,l1_t_es_na_013,,,,,,,image/america.png,image/spain.png,,,,,,,,,,,2,america,spain,,,,,,,,,,,"[""lshift"",""rshift""]","[1.1790000000000305,2.428599999904634]",0,0,0,37,1,1
091,001,2023-09-14_12h03.00.504,exp_g2,2022.2.5,MacIntel,60.0024001,,,,,,,,016,l1,t,es,na,audio/016.wav,,l1_t_es_na_016,,,,,,,image/america.png,image/spain.png,,,,,,,,,,,2,america,spain,,,,,,,,,,,"[""lshift"",""rshift""]","[1.24970000004771,2.985500000000002]",0,1,1,40,1,1
091,001,2023-09-14_12h03.00.504,exp_g2,2022.2.5,MacIntel,60.0024001,,,,,,,,080,l1,f,se,na,audio/080.wav,,l1_f_se_na_080,,,,,,,image/america.png,image/spain.png,,,,,,,,,,,2,america,spain,,,,,,,,,,,"[""lshift"",""rshift""]","[1.190200000047696,1.5364999999999895]",0,2,2,19,1,1
091,001,2023-09-14_12h03.00.504,exp_g2,2022.2.5,MacIntel,60.0024001,,,,,,,,152,l1,t,es,f0c,audio/152.wav,,l1_t_es_f0c_152,,,,,,,image/america.png,image/spain.png,,,,,,,,,,,2,america,spain,,,,,,,,,,,"[""lshift"",""rshift""]","[1.6188000001907312,2.2076000001430316]",0,3,3,46,1,1
091,001,2023-09-14_12h03.00.504,exp_g2,2022.2.5,MacIntel,60.0024001,,,,,,,,076,l1,f,se,na,audio/076.wav,,l1_f_se_na_076,,,,,,,image/america.png,image/spain.png,,,,,,,,,,,2,america,spain,,,,,,,,,,,"[""rshift""]",[1.1013999998569375],0,4,4,15,1,1
091,001,2023-09-14_12h03.00.504,exp_g2,2022.2.5,MacIntel,60.0024001,,,,,,,,020,l1,t,es,na,audio/020.wav,,l1_t_es_na_020,,,,,,,image/america.png,image/spain.png,,,,,,,,,,,2,america,spain,,,,,,,,,,,"[""lshift"",""rshift""]","[1.4350000000000023,2.168599999904643]",0,5,5,44,1,1
091,001,2023-09-14_12h03.00.504,exp_g2,2022.2.5,MacIntel,60.0024001,,,,,,,,094,l1,f,sp,na,audio/094.wav,,l1_f_sp_na_094,,,,,,,image/america.png,image/spain.png,,,,,,,,,,,2,america,spain,,,,,,,,,,,"[""rshift""]",[1.2055999999046776],0,6,6,33,1,
091,001,2023-09-14_12h03.00.504,exp_g2,2022.2.5,MacIntel,60.0024001,,,,,,,,071,l1,f,en,na,audio/071.wav,,l1_f_en_na_071,,,,,,,image/america.png,image/spain.png,,,,,,,,,,,2,america,spain,,,,,,,,,,,"[""lshift""]",[1.500799999952335],0,7,7,10,1,
091,001,2023-09-14_12h03.00.504,exp_g2,2022.2.5,MacIntel,60.0024001,,,,,,,,087,l1,f,sp,na,audio/087.wav,,l1_f_sp_na_087,,,,,,,image/america.png,image/spain.png,,,,,,,,,,,2,america,spain,,,,,,,,,,,"[""rshift""]",[1.179200000047672],0,8,8,26,1,
091,001,2023-09-14_12h03.00.504,exp_g2,2022.2.5,MacIntel,60.0024001,,,,,,,,091,l1,f,sp,na,audio/091.wav,,l1_f_sp_na_091,,,,,,,image/america.png,image/spain.png,,,,,,,,,,,2,america,spain,,,,,,,,,,,"[""rshift""]",[1.253199999809226],0,9,9,30,1,
091,001,2023-09-14_12h03.00.504,exp_g2,2022.2.5,MacIntel,60.0024001,,,,,,,,012,l1,t,es,na,audio/012.wav,,l1_t_es_na_012,,,,,,,image/america.png,image/spain.png,,,,,,,,,,,2,america,spain,,,,,,,,,,,"[""lshift"",""rshift""]","[1.7667000000476492,2.4329000000953442]",0,10,10,36,1,1
091,001,2023-09-14_12h03.00.504,exp_g2,2022.2.5,MacIntel,60.0024001,,,,,,,,066,l1,f,en,na,audio/066.wav,,l1_f_en_na_066,,,,,,,image/america.png,image/spain.png,,,,,,,,,,,2,america,spain,,,,,,,,,,,"[""lshift""]",[1.5130999999046253],0,11,11,5,1,
091,001,2023-09-14_12h03.00.504,exp_g2,2022.2.5,MacIntel,60.0024001,,,,,,,,011,l1,t,es,na,audio/011.wav,,l1_t_es_na_011,,,,,,,image/america.png,image/spain.png,,,,,,,,,,,2,america,spain,,,,,,,,,,,"[""lshift"",""rshift""]","[1.4379999999999882,2.418899999856933]",0,12,12,35,1,1
091,001,2023-09-14_12h03.00.504,exp_g2,2022.2.5,MacIntel,60.0024001,,,,,,,,089,l1,f,sp,na,audio/089.wav,,l1_f_sp_na_089,,,,,,,image/america.png,image/spain.png,,,,,,,,,,,2,america,spain,,,,,,,,,,,"[""rshift""]",[1.2371999998092633],0,13,13,28,1,
091,001,2023-09-14_12h03.00.504,exp_g2,2022.2.5,MacIntel,60.0024001,,,,,,,,014,l1,t,es,na,audio/014.wav,,l1_t_es_na_014,,,,,,,image/america.png,image/spain.png,,,,,,,,,,,2,america,spain,,,,,,,,,,,"[""lshift"",""rshift""]","[1.377999999999986,2.242500000000007]",0,14,14,38,1,1
091,001,2023-09-14_12h03.00.504,exp_g2,2022.2.5,MacIntel,60.0024001,,,,,,,,157,l1,t,es,f0c,audio/157.wav,,l1_t_es_f0c_157,,,,,,,image/america.png,image/spain.png,,,,,,,,,,,2,america,spain,,,,,,,,,,,"[""lshift"",""rshift""]","[1.3662000000476837,2.1771000001430707]",0,15,15,51,1,1
091,001,2023-09-14_12h03.00.504,exp_g2,2022.2.5,MacIntel,60.0024001,,,,,,,,088,l1,f,sp,na,audio/088.wav,,l1_f_sp_na_088,,,,,,,image/america.png,image/spain.png,,,,,,,,,,,2,america,spain,,,,,,,,,,,"[""rshift""]",[1.565200000047696],0,16,16,27,1,
091,001,2023-09-14_12h03.00.504,exp_g2,2022.2.5,MacIntel,60.0024001,,,,,,,,151,l1,t,es,f0c,audio/151.wav,,l1_t_es_f0c_151,,,,,,,image/america.png,image/spain.png,,,,,,,,,,,2,america,spain,,,,,,,,,,,"[""lshift"",""rshift""]","[1.367800000190698,2.252200000047651]",0,17,17,45,1,1
091,001,2023-09-14_12h03.00.504,exp_g2,2022.2.5,MacIntel,60.0024001,,,,,,,,154,l1,t,es,f0c,audio/154.wav,,l1_t_es_f0c_154,,,,,,,image/america.png,image/spain.png,,,,,,,,,,,2,america,spain,,,,,,,,,,,"[""lshift"",""rshift""]","[1.5228999998569748,2.519099999904654]",0,18,18,48,1,1
091,001,2023-09-14_12h03.00.504,exp_g2,2022.2.5,MacIntel,60.0024001,,,,,,,,158,l1,t,es,f0c,audio/158.wav,,l1_t_es_f0c_158,,,,,,,image/america.png,image/spain.png,,,,,,,,,,,2,america,spain,,,,,,,,,,,"[""lshift"",""rshift""]","[1.4541000001430575,2.3125]",0,19,19,52,1,1
091,001,2023-09-14_12h03.00.504,exp_g2,2022.2.5,MacIntel,60.0024001,,,,,,,,078,l1,f,se,na,audio/078.wav,,l1_f_se_na_078,,,,,,,image/america.png,image/spain.png,,,,,,,,,,,2,america,spain,,,,,,,,,,,"[""rshift"",""lshift""]","[1.2062000000476587,2.0821000001430434]",0,20,20,17,1,1
091,001,2023-09-14_12h03.00.504,exp_g2,2022.2.5,MacIntel,60.0024001,,,,,,,,065,l1,f,en,na,audio/065.wav,,l1_f_en_na_065,,,,,,,image/america.png,image/spain.png,,,,,,,,,,,2,america,spain,,,,,,,,,,,"[""lshift""]",[1.4345999999046057],0,21,21,4,1,
091,001,2023-09-14_12h03.00.504,exp_g2,2022.2.5,MacIntel,60.0024001,,,,,,,,075,l1,f,en,na,audio/075.wav,,l1_f_en_na_075,,,,,,,image/america.png,image/spain.png,,,,,,,,,,,2,america,spain,,,,,,,,,,,"[""lshift""]",[1.7017000000477083],0,22,22,14,1,
091,001,2023-09-14_12h03.00.504,exp_g2,2022.2.5,MacIntel,60.0024001,,,,,,,,067,l1,f,en,na,audio/067.wav,,l1_f_en_na_067,,,,,,,image/america.png,image/spain.png,,,,,,,,,,,2,america,spain,,,,,,,,,,,"[""lshift""]",[1.484099999904629],0,23,23,6,1,
091,001,2023-09-14_12h03.00.504,exp_g2,2022.2.5,MacIntel,60.0024001,,,,,,,,086,l1,f,sp,na,audio/086.wav,,l1_f_sp_na_086,,,,,,,image/america.png,image/spain.png,,,,,,,,,,,2,america,spain,,,,,,,,,,,"[""rshift""]",[1.3657000000476955],0,24,24,25,1,
091,001,2023-09-14_12h03.00.504,exp_g2,2022.2.5,MacIntel,60.0024001,,,,,,,,072,l1,f,en,na,audio/072.wav,,l1_f_en_na_072,,,,,,,image/america.png,image/spain.png,,,,,,,,,,,2,america,spain,,,,,,,,,,,"[""lshift""]",[2.1823999998569548],0,25,25,11,1,
091,001,2023-09-14_12h03.00.504,exp_g2,2022.2.5,MacIntel,60.0024001,,,,,,,,074,l1,f,en,na,audio/074.wav,,l1_f_en_na_074,,,,,,,image/america.png,image/spain.png,,,,,,,,,,,2,america,spain,,,,,,,,,,,"[""lshift""]",[1.3670999999046671],0,26,26,13,1,
091,001,2023-09-14_12h03.00.504,exp_g2,2022.2.5,MacIntel,60.0024001,,,,,,,,019,l1,t,es,na,audio/019.wav,,l1_t_es_na_019,,,,,,,image/america.png,image/spain.png,,,,,,,,,,,2,america,spain,,,,,,,,,,,"[""lshift""]",[1.2381000001430493],0,27,27,43,1,1
091,001,2023-09-14_12h03.00.504,exp_g2,2022.2.5,MacIntel,60.0024001,,,,,,,,085,l1,f,se,na,audio/085.wav,,l1_f_se_na_085,,,,,,,image/america.png,image/spain.png,,,,,,,,,,,2,america,spain,,,,,,,,,,,"[""rshift"",""lshift""]","[1.2112000000476542,2.5364999999999895]",0,28,28,24,1,1
091,001,2023-09-14_12h03.00.504,exp_g2,2022.2.5,MacIntel,60.0024001,,,,,,,,062,l1,f,en,na,audio/062.wav,,l1_f_en_na_062,,,,,,,image/america.png,image/spain.png,,,,,,,,,,,2,america,spain,,,,,,,,,,,"[""lshift""]",[1.2699999999999818],0,29,29,1,1,
091,001,2023-09-14_12h03.00.504,exp_g2,2022.2.5,MacIntel,60.0024001,,,,,,,,061,l1,f,en,na,audio/061.wav,,l1_f_en_na_061,,,,,,,image/america.png,image/spain.png,,,,,,,,,,,2,america,spain,,,,,,,,,,,"[""lshift""]",[1.2135000000000105],0,30,30,0,1,
091,001,2023-09-14_12h03.00.504,exp_g2,2022.2.5,MacIntel,60.0024001,,,,,,,,159,l1,t,es,f0c,audio/159.wav,,l1_t_es_f0c_159,,,,,,,image/america.png,image/spain.png,,,,,,,,,,,2,america,spain,,,,,,,,,,,"[""lshift"",""rshift""]","[1.333600000143008,2.899299999952291]",0,31,31,53,1,1
091,001,2023-09-14_12h03.00.504,exp_g2,2022.2.5,MacIntel,60.0024001,,,,,,,,093,l1,f,sp,na,audio/093.wav,,l1_f_sp_na_093,,,,,,,image/america.png,image/spain.png,,,,,,,,,,,2,america,spain,,,,,,,,,,,"[""rshift""]",[1.1010999999046476],0,32,32,32,1,
091,001,2023-09-14_12h03.00.504,exp_g2,2022.2.5,MacIntel,60.0024001,,,,,,,,017,l1,t,es,na,audio/017.wav,,l1_t_es_na_017,,,,,,,image/america.png,image/spain.png,,,,,,,,,,,2,america,spain,,,,,,,,,,,"[""lshift"",""rshift""]","[1.3386000001430602,2.5988000001907494]",0,33,33,41,1,1
091,001,2023-09-14_12h03.00.504,exp_g2,2022.2.5,MacIntel,60.0024001,,,,,,,,077,l1,f,se,na,audio/077.wav,,l1_f_se_na_077,,,,,,,image/america.png,image/spain.png,,,,,,,,,,,2,america,spain,,,,,,,,,,,"[""rshift"",""lshift""]","[1.2322999999523176,2.033999999999992]",0,34,34,16,1,1
091,001,2023-09-14_12h03.00.504,exp_g2,2022.2.5,MacIntel,60.0024001,,,,,,,,095,l1,f,sp,na,audio/095.wav,,l1_f_sp_na_095,,,,,,,image/america.png,image/spain.png,,,,,,,,,,,2,america,spain,,,,,,,,,,,"[""rshift""]",[1.2819000000953906],0,35,35,34,1,
091,001,2023-09-14_12h03.00.504,exp_g2,2022.2.5,MacIntel,60.0024001,,,,,,,,153,l1,t,es,f0c,audio/153.wav,,l1_t_es_f0c_153,,,,,,,image/america.png,image/spain.png,,,,,,,,,,,2,america,spain,,,,,,,,,,,"[""lshift"",""rshift""]","[1.4492000000477105,2.724400000095386]",0,36,36,47,1,1
091,001,2023-09-14_12h03.00.504,exp_g2,2022.2.5,MacIntel,60.0024001,,,,,,,,156,l1,t,es,f0c,audio/156.wav,,l1_t_es_f0c_156,,,,,,,image/america.png,image/spain.png,,,,,,,,,,,2,america,spain,,,,,,,,,,,"[""lshift"",""rshift""]","[1.383100000143088,2.4244000000953747]",0,37,37,50,1,1
091,001,2023-09-14_12h03.00.504,exp_g2,2022.2.5,MacIntel,60.0024001,,,,,,,,090,l1,f,sp,na,audio/090.wav,,l1_f_sp_na_090,,,,,,,image/america.png,image/spain.png,,,,,,,,,,,2,america,spain,,,,,,,,,,,"[""lshift"",""rshift"",""rshift""]","[1.6667000000476833,1.9000999999046257,2.1500999999046257]",0,38,38,29,1,
091,001,2023-09-14_12h03.00.504,exp_g2,2022.2.5,MacIntel,60.0024001,,,,,,,,092,l1,f,sp,na,audio/092.wav,,l1_f_sp_na_092,,,,,,,image/america.png,image/spain.png,,,,,,,,,,,2,america,spain,,,,,,,,,,,"[""rshift""]",[1.6674000000954265],0,39,39,31,1,
091,001,2023-09-14_12h03.00.504,exp_g2,2022.2.5,MacIntel,60.0024001,,,,,,,,018,l1,t,es,na,audio/018.wav,,l1_t_es_na_018,,,,,,,image/america.png,image/spain.png,,,,,,,,,,,2,america,spain,,,,,,,,,,,"[""lshift"",""rshift""]","[1.4132999999523008,2.253799999952321]",0,40,40,42,1,1
091,001,2023-09-14_12h03.00.504,exp_g2,2022.2.5,MacIntel,60.0024001,,,,,,,,068,l1,f,en,na,audio/068.wav,,l1_f_en_na_068,,,,,,,image/america.png,image/spain.png,,,,,,,,,,,2,america,spain,,,,,,,,,,,"[""lshift""]",[1.4013999998569489],0,41,41,7,1,
091,001,2023-09-14_12h03.00.504,exp_g2,2022.2.5,MacIntel,60.0024001,,,,,,,,070,l1,f,en,na,audio/070.wav,,l1_f_en_na_070,,,,,,,image/america.png,image/spain.png,,,,,,,,,,,2,america,spain,,,,,,,,,,,"[""lshift""]",[1.4840000000000373],0,42,42,9,1,
091,001,2023-09-14_12h03.00.504,exp_g2,2022.2.5,MacIntel,60.0024001,,,,,,,,073,l1,f,en,na,audio/073.wav,,l1_f_en_na_073,,,,,,,image/america.png,image/spain.png,,,,,,,,,,,2,america,spain,,,,,,,,,,,"[""lshift""]",[1.279899999856866],0,43,43,12,1,
091,001,2023-09-14_12h03.00.504,exp_g2,2022.2.5,MacIntel,60.0024001,,,,,,,,083,l1,f,se,na,audio/083.wav,,l1_f_se_na_083,,,,,,,image/america.png,image/spain.png,,,,,,,,,,,2,america,spain,,,,,,,,,,,"[""rshift""]",[1.2662999999522526],0,44,44,22,1,1
091,001,2023-09-14_12h03.00.504,exp_g2,2022.2.5,MacIntel,60.0024001,,,,,,,,079,l1,f,se,na,audio/079.wav,,l1_f_se_na_079,,,,,,,image/america.png,image/spain.png,,,,,,,,,,,2,america,spain,,,,,,,,,,,"[""rshift""]",[1.533299999952419],0,45,45,18,1,1
091,001,2023-09-14_12h03.00.504,exp_g2,2022.2.5,MacIntel,60.0024001,,,,,,,,155,l1,t,es,f0c,audio/155.wav,,l1_t_es_f0c_155,,,,,,,image/america.png,image/spain.png,,,,,,,,,,,2,america,spain,,,,,,,,,,,"[""lshift"",""rshift""]","[1.5994999999999209,1.916800000190733]",0,46,46,49,1,1
091,001,2023-09-14_12h03.00.504,exp_g2,2022.2.5,MacIntel,60.0024001,,,,,,,,015,l1,t,es,na,audio/015.wav,,l1_t_es_na_015,,,,,,,image/america.png,image/spain.png,,,,,,,,,,,2,america,spain,,,,,,,,,,,"[""lshift"",""rshift""]","[1.664799999952379,2.0691000001430666]",0,47,47,39,1,1
091,001,2023-09-14_12h03.00.504,exp_g2,2022.2.5,MacIntel,60.0024001,,,,,,,,160,l1,t,es,f0c,audio/160.wav,,l1_t_es_f0c_160,,,,,,,image/america.png,image/spain.png,,,,,,,,,,,2,america,spain,,,,,,,,,,,"[""lshift"",""rshift""]","[1.5845999999046398,2.7996999998092633]",0,48,48,54,1,1
091,001,2023-09-14_12h03.00.504,exp_g2,2022.2.5,MacIntel,60.0024001,,,,,,,,081,l1,f,se,na,audio/081.wav,,l1_f_se_na_081,,,,,,,image/america.png,image/spain.png,,,,,,,,,,,2,america,spain,,,,,,,,,,,"[""rshift"",""lshift""]","[1.4202000000476573,3.2179000000953693]",0,49,49,20,1,1
091,001,2023-09-14_12h03.00.504,exp_g2,2022.2.5,MacIntel,60.0024001,,,,,,,,082,l1,f,se,na,audio/082.wav,,l1_f_se_na_082,,,,,,,image/america.png,image/spain.png,,,,,,,,,,,2,america,spain,,,,,,,,,,,"[""rshift"",""lshift""]","[1.4373999998568934,4.017199999809236]",0,50,50,21,1,1
091,001,2023-09-14_12h03.00.504,exp_g2,2022.2.5,MacIntel,60.0024001,,,,,,,,084,l1,f,se,na,audio/084.wav,,l1_f_se_na_084,,,,,,,image/america.png,image/spain.png,,,,,,,,,,,2,america,spain,,,,,,,,,,,"[""rshift""]",[1.5509000000953392],0,51,51,23,1,1
091,001,2023-09-14_12h03.00.504,exp_g2,2022.2.5,MacIntel,60.0024001,,,,,,,,063,l1,f,en,na,audio/063.wav,,l1_f_en_na_063,,,,,,,image/america.png,image/spain.png,,,,,,,,,,,2,america,spain,,,,,,,,,,,"[""lshift""]",[1.5897000000476282],0,52,52,2,1,
091,001,2023-09-14_12h03.00.504,exp_g2,2022.2.5,MacIntel,60.0024001,,,,,,,,069,l1,f,en,na,audio/069.wav,,l1_f_en_na_069,,,,,,,image/america.png,image/spain.png,,,,,,,,,,,2,america,spain,,,,,,,,,,,"[""lshift""]",[1.5844000000953429],0,53,53,8,1,
091,001,2023-09-14_12h03.00.504,exp_g2,2022.2.5,MacIntel,60.0024001,,,,,,,,064,l1,f,en,na,audio/064.wav,,l1_f_en_na_064,,,,,,,image/america.png,image/spain.png,,,,,,,,,,,2,america,spain,,,,,,,,,,,"[""lshift""]",[1.9174000000953129],0,54,54,3,1,
091,001,2023-09-14_12h03.00.504,exp_g2,2022.2.5,MacIntel,60.0024001,,,,,,,,,,,,,,,,,,,,,,,,,,,,,,,,,,,,,,,,,,,,,,,,,,,,,,
